File: material/gas/smooth_input/co2_uv_vis_toa_T1_P0.txt
2.8e-07 -0
2.8047e-07 -0
2.8094e-07 -0
2.814e-07 -0
2.8187e-07 -0
2.8234e-07 -0
2.8282e-07 -0
2.8329e-07 -0
2.8376e-07 -0
2.8423e-07 -0
2.8471e-07 -0
2.8518e-07 -0
2.8566e-07 -0
2.8614e-07 -0
2.8661e-07 -0
2.8709e-07 -0
2.8757e-07 -0
2.8805e-07 -0
2.8853e-07 -0
2.8901e-07 -0
2.895e-07 -0
2.8998e-07 -0
2.9046e-07 -0
2.9095e-07 -0
2.9143e-07 -0
2.9192e-07 -0
2.9241e-07 -0
2.929e-07 -0
2.9339e-07 -0
2.9388e-07 -0
2.9437e-07 -0
2.9486e-07 -0
2.9535e-07 -0
2.9584e-07 -0
2.9634e-07 -0
2.9683e-07 -0
2.9733e-07 -0
2.9782e-07 -0
2.9832e-07 -0
2.9882e-07 -0
2.9932e-07 -0
2.9982e-07 -0
3.0032e-07 -0
3.0082e-07 -0
3.0132e-07 -0
3.0182e-07 -0
3.0233e-07 -0
3.0283e-07 -0
3.0334e-07 -0
3.0384e-07 -0
3.0435e-07 -0
3.0486e-07 -0
3.0537e-07 -0
3.0588e-07 -0
3.0639e-07 -0
3.069e-07 -0
3.0741e-07 -0
3.0792e-07 -0
3.0844e-07 -0
3.0895e-07 -0
3.0947e-07 -0
3.0998e-07 -0
3.105e-07 -0
3.1102e-07 -0
3.1154e-07 -0
3.1206e-07 -0
3.1258e-07 -0
3.131e-07 -0
3.1362e-07 -0
3.1415e-07 -0
3.1467e-07 -0
3.152e-07 -0
3.1572e-07 -0
3.1625e-07 -0
3.1678e-07 -0
3.1731e-07 -0
3.1784e-07 -0
3.1837e-07 -0
3.189e-07 -0
3.1943e-07 -0
3.1996e-07 -0
3.205e-07 -0
3.2103e-07 -0
3.2157e-07 -0
3.2211e-07 -0
3.2264e-07 -0
3.2318e-07 -0
3.2372e-07 -0
3.2426e-07 -0
3.248e-07 -0
3.2535e-07 -0
3.2589e-07 -0
3.2643e-07 -0
3.2698e-07 -0
3.2752e-07 -0
3.2807e-07 -0
3.2862e-07 -0
3.2917e-07 -0
3.2972e-07 -0
3.3027e-07 -0
3.3082e-07 -0
3.3137e-07 -0
3.3192e-07 -0
3.3248e-07 -0
3.3303e-07 -0
3.3359e-07 -0
3.3414e-07 -0
3.347e-07 -0
3.3526e-07 -0
3.3582e-07 -0
3.3638e-07 -0
3.3694e-07 -0
3.375e-07 -0
3.3807e-07 -0
3.3863e-07 -0
3.392e-07 -0
3.3976e-07 -0
3.4033e-07 -0
3.409e-07 -0
3.4147e-07 -0
3.4204e-07 -0
3.4261e-07 -0
3.4318e-07 -0
3.4375e-07 -0
3.4433e-07 -0
3.449e-07 -0
3.4548e-07 -0
3.4605e-07 -0
3.4663e-07 -0
3.4721e-07 -0
3.4779e-07 -0
3.4837e-07 -0
3.4895e-07 -0
3.4953e-07 -0
3.5012e-07 -0
3.507e-07 -0
3.5129e-07 -0
3.5187e-07 -0
3.5246e-07 -0
3.5305e-07 -0
3.5364e-07 -0
3.5423e-07 -0
3.5482e-07 -0
3.5541e-07 -0
3.5601e-07 -0
3.566e-07 -0
3.572e-07 -0
3.5779e-07 -0
3.5839e-07 -0
3.5899e-07 -0
3.5959e-07 -0
3.6019e-07 -0
3.6079e-07 -0
3.6139e-07 -0
3.6199e-07 -0
3.626e-07 -0
3.632e-07 -0
3.6381e-07 -0
3.6442e-07 -0
3.6502e-07 -0
3.6563e-07 -0
3.6624e-07 -0
3.6686e-07 -0
3.6747e-07 -0
3.6808e-07 -0
3.687e-07 -0
3.6931e-07 -0
3.6993e-07 -0
3.7054e-07 -0
3.7116e-07 -0
3.7178e-07 -0
3.724e-07 -0
3.7302e-07 -0
3.7365e-07 -0
3.7427e-07 -0
3.749e-07 -0
3.7552e-07 -0
3.7615e-07 -0
3.7678e-07 -0
3.7741e-07 -0
3.7804e-07 -0
3.7867e-07 -0
3.793e-07 -0
3.7993e-07 -0
3.8057e-07 -0
3.812e-07 -0
3.8184e-07 -0
3.8247e-07 -0
3.8311e-07 -0
3.8375e-07 -0
3.8439e-07 -0
3.8503e-07 -0
3.8568e-07 -0
3.8632e-07 -0
3.8697e-07 -0
3.8761e-07 -0
3.8826e-07 -0
3.8891e-07 -0
3.8956e-07 -0
3.9021e-07 -0
3.9086e-07 -0
3.9151e-07 -0
3.9216e-07 -0
3.9282e-07 -0
3.9347e-07 -0
3.9413e-07 -0
3.9479e-07 -0
3.9545e-07 -0
3.9611e-07 -0
3.9677e-07 -0
3.9743e-07 -0
3.9809e-07 -0
3.9876e-07 -0
3.9942e-07 -0
4.0009e-07 -0
4.0076e-07 -0
4.0143e-07 -0
4.021e-07 -0
4.0277e-07 -0
4.0344e-07 -0
4.0411e-07 -0
4.0479e-07 -0
4.0546e-07 -0
4.0614e-07 -0
4.0682e-07 -0
4.075e-07 -0
4.0818e-07 -0
4.0886e-07 -0
4.0954e-07 -0
4.1023e-07 -0
4.1091e-07 -0
4.116e-07 -0
4.1228e-07 -0
4.1297e-07 -0
4.1366e-07 -0
4.1435e-07 -0
4.1504e-07 -0
4.1574e-07 -0
4.1643e-07 -0
4.1712e-07 -0
4.1782e-07 -0
4.1852e-07 -0
4.1922e-07 -0
4.1992e-07 -0
4.2062e-07 -0
4.2132e-07 -0
4.2202e-07 -0
4.2273e-07 -0
4.2343e-07 -0
4.2414e-07 -0
4.2485e-07 -0
4.2556e-07 -0
4.2627e-07 -0
4.2698e-07 -0
4.2769e-07 -0
4.2841e-07 -0
4.2912e-07 -0
4.2984e-07 -0
4.3055e-07 -0
4.3127e-07 -0
4.3199e-07 -0
4.3271e-07 -0
4.3344e-07 -0
4.3416e-07 -0
4.3488e-07 -0
4.3561e-07 -0
4.3634e-07 -0
4.3707e-07 -0
4.3779e-07 -0
4.3853e-07 -0
4.3926e-07 -0
4.3999e-07 -0
4.4073e-07 -0
4.4146e-07 -0
4.422e-07 -0
4.4294e-07 -0
4.4368e-07 -0
4.4442e-07 -0
4.4516e-07 -0
4.459e-07 -0
4.4664e-07 -0
4.4739e-07 -0
4.4814e-07 -0
4.4889e-07 -0
4.4963e-07 -0
4.5038e-07 -0
4.5114e-07 -0
4.5189e-07 -0
4.5264e-07 -0
4.534e-07 -0
4.5416e-07 -0
4.5491e-07 -0
4.5567e-07 -0
4.5643e-07 -0
4.572e-07 -0
4.5796e-07 -0
4.5872e-07 -0
4.5949e-07 -0
4.6026e-07 -0
4.6102e-07 -0
4.6179e-07 -0
4.6256e-07 -0
4.6334e-07 -0
4.6411e-07 -0
4.6489e-07 -0
4.6566e-07 -0
4.6644e-07 -0
4.6722e-07 -0
4.68e-07 -0
4.6878e-07 -0
4.6956e-07 -0
4.7034e-07 -0
4.7113e-07 -0
4.7192e-07 -0
4.727e-07 -0
4.7349e-07 -0
4.7428e-07 -0
4.7507e-07 -0
4.7587e-07 -0
4.7666e-07 -0
4.7746e-07 -0
4.7825e-07 -0
4.7905e-07 -0
4.7985e-07 -0
4.8065e-07 -0
4.8146e-07 -0
4.8226e-07 -0
4.8306e-07 -0
4.8387e-07 -0
4.8468e-07 -0
4.8549e-07 -0
4.863e-07 -0
4.8711e-07 -0
4.8792e-07 -0
4.8874e-07 -0
4.8955e-07 -0
4.9037e-07 -0
4.9119e-07 -0
4.9201e-07 -0
4.9283e-07 -0
4.9365e-07 -0
4.9448e-07 -0
4.953e-07 -0
4.9613e-07 -0
4.9696e-07 1.4367e-40
4.9779e-07 2.6836e-39
4.9862e-07 6.0786e-39
4.9945e-07 9.7042e-39
5.0028e-07 1.8272e-38
5.0112e-07 4.9441e-38
5.0195e-07 5.0966e-35
5.0279e-07 2.9484e-34
5.0363e-07 1.8251e-35
5.0447e-07 4.0574e-38
5.0531e-07 1.5927e-38
5.0616e-07 8.7553e-39
5.07e-07 5.6839e-39
5.0785e-07 2.0146e-39
5.087e-07 1.0994e-40
5.0954e-07 -0
5.104e-07 5.6845e-41
5.1125e-07 1.4661e-39
5.121e-07 5.324e-39
5.1296e-07 8.5717e-39
5.1381e-07 1.508e-38
5.1467e-07 3.2946e-38
5.1553e-07 2.2075e-36
5.1639e-07 2.1775e-34
5.1725e-07 1.6624e-34
5.1811e-07 2.1435e-37
5.1898e-07 3.4385e-38
5.1984e-07 2.3338e-38
5.2071e-07 2.7072e-38
5.2158e-07 6.5035e-38
5.2245e-07 9.0662e-35
5.2332e-07 1.8354e-34
5.242e-07 8.0502e-36
5.2507e-07 2.5e-38
5.2595e-07 1.1614e-38
5.2683e-07 6.544e-39
5.2771e-07 5.0404e-39
5.2859e-07 5.1897e-39
5.2947e-07 5.4352e-39
5.3035e-07 8.9009e-39
5.3124e-07 1.7573e-38
5.3213e-07 5.3488e-38
5.3301e-07 8.1243e-35
5.339e-07 1.9186e-34
5.3479e-07 3.8644e-36
5.3569e-07 2.772e-38
5.3658e-07 1.6082e-38
5.3748e-07 1.4775e-38
5.3837e-07 1.7523e-38
5.3927e-07 2.5186e-38
5.4017e-07 5.3788e-38
5.4107e-07 1.7278e-35
5.4198e-07 3.2913e-34
5.4288e-07 1.3864e-34
5.4379e-07 7.9334e-35
5.447e-07 1.5441e-35
5.4561e-07 3.1104e-35
5.4652e-07 1.6267e-34
5.4743e-07 9.1074e-35
5.4834e-07 3.0971e-36
5.4926e-07 4.1225e-35
5.5017e-07 4.0531e-34
5.5109e-07 4.3113e-35
5.5201e-07 8.2903e-38
5.5293e-07 3.4414e-38
5.5386e-07 2.2794e-38
5.5478e-07 2.2846e-38
5.5571e-07 3.8082e-38
5.5663e-07 1.7265e-35
5.5756e-07 2.0444e-34
5.5849e-07 4.3756e-35
5.5943e-07 5.0599e-38
5.6036e-07 2.507e-38
5.613e-07 2.3605e-38
5.6223e-07 3.475e-38
5.6317e-07 9.931e-38
5.6411e-07 1.3453e-34
5.6505e-07 2.9216e-34
5.66e-07 7.1665e-35
5.6694e-07 3.0357e-36
5.6789e-07 2.6553e-38
5.6883e-07 1.368e-38
5.6978e-07 8.463e-39
5.7074e-07 5.3084e-39
5.7169e-07 2.4275e-39
5.7264e-07 4.6969e-39
5.736e-07 7.1268e-39
5.7456e-07 1.1099e-38
5.7551e-07 2.0283e-38
5.7647e-07 5.2933e-38
5.7744e-07 1.6161e-35
5.784e-07 2.6691e-34
5.7937e-07 1.6081e-34
5.8033e-07 3.9896e-37
5.813e-07 3.6317e-37
5.8227e-07 4.8583e-34
5.8324e-07 7.1774e-34
5.8422e-07 2.5071e-34
5.8519e-07 8.2105e-35
5.8617e-07 2.7649e-34
5.8715e-07 2.2083e-34
5.8813e-07 5.0332e-34
5.8911e-07 1.0318e-34
5.9009e-07 1.3521e-37
5.9108e-07 5.6098e-38
5.9206e-07 3.7662e-38
5.9305e-07 3.2298e-38
5.9404e-07 3.797e-38
5.9503e-07 7.7241e-38
5.9603e-07 2.488e-35
5.9702e-07 4.2386e-34
5.9802e-07 1.364e-34
5.9902e-07 5.455e-35
6.0002e-07 2.2933e-35
6.0102e-07 9.2816e-38
6.0202e-07 1.3539e-37
6.0303e-07 3.3324e-37
6.0403e-07 2.9361e-34
6.0504e-07 1.0415e-33
6.0605e-07 5.7258e-34
6.0706e-07 3.9365e-35
6.0808e-07 1.364e-36
6.0909e-07 1.324e-33
6.1011e-07 9.922e-34
6.1113e-07 3.4769e-34
6.1215e-07 8.717e-35
6.1317e-07 2.4999e-34
6.1419e-07 1.7086e-34
6.1522e-07 1.7266e-34
6.1624e-07 6.415e-35
6.1727e-07 1.2741e-37
6.183e-07 6.802e-38
6.1933e-07 4.0734e-36
6.2037e-07 2.0825e-34
6.214e-07 1.338e-34
6.2244e-07 2.2077e-37
6.2348e-07 1.2559e-37
6.2452e-07 1.7845e-37
6.2556e-07 3.4185e-37
6.2661e-07 1.3327e-36
6.2765e-07 1.1657e-33
6.287e-07 1.5052e-33
6.2975e-07 5.586e-34
6.308e-07 1.7217e-34
6.3185e-07 4.1099e-34
6.3291e-07 1.2534e-34
6.3397e-07 1.9839e-37
6.3502e-07 9.873e-38
6.3608e-07 5.7346e-38
6.3715e-07 3.4334e-38
6.3821e-07 3.1172e-38
6.3927e-07 4.3484e-38
6.4034e-07 9.4826e-38
6.4141e-07 5.1577e-35
6.4248e-07 4.9829e-34
6.4355e-07 1.6596e-34
6.4463e-07 2.8473e-37
6.457e-07 1.9358e-37
6.4678e-07 2.8821e-37
6.4786e-07 6.9071e-37
6.4894e-07 2.9973e-36
6.5003e-07 2.7887e-33
6.5111e-07 2.1704e-33
6.522e-07 1.2446e-33
6.5329e-07 4.1888e-34
6.5438e-07 2.3903e-35
6.5547e-07 9.2861e-33
6.5656e-07 1.4689e-32
6.5766e-07 6.1354e-33
6.5876e-07 1.7242e-33
6.5986e-07 4.677e-34
6.6096e-07 7.2719e-33
6.6206e-07 3.82e-33
6.6317e-07 1.5876e-33
6.6427e-07 6.3379e-34
6.6538e-07 3.5307e-34
6.6649e-07 1.2179e-34
6.676e-07 1.9974e-34
6.6872e-07 2.5598e-34
6.6983e-07 2.9871e-34
6.7095e-07 2.0069e-34
6.7207e-07 9.433e-36
6.7319e-07 7.1469e-38
6.7432e-07 3.9581e-38
6.7544e-07 2.7455e-38
6.7657e-07 2.286e-38
6.777e-07 2.1574e-38
6.7883e-07 2.7124e-38
6.7996e-07 4.9431e-38
6.811e-07 1.2483e-35
6.8224e-07 2.1357e-34
6.8338e-07 2.6789e-34
6.8452e-07 1.8755e-35
6.8566e-07 5.4387e-38
6.868e-07 2.9106e-38
6.8795e-07 2.0761e-38
6.891e-07 1.8852e-38
6.9025e-07 2.1881e-38
6.914e-07 3.2443e-38
6.9255e-07 6.3501e-38
6.9371e-07 8.7921e-37
6.9487e-07 2.3668e-34
6.9603e-07 5.7776e-34
6.9719e-07 5.835e-35
6.9835e-07 1.3421e-37
6.9952e-07 6.4861e-38
7.0069e-07 1.5527e-37
7.0186e-07 3.6523e-37
7.0303e-07 5.5626e-37
7.042e-07 7.9929e-37
7.0538e-07 1.3097e-36
7.0655e-07 8.4794e-35
7.0773e-07 7.3637e-34
7.0891e-07 2.5201e-34
7.101e-07 1.56e-32
7.1128e-07 2.0249e-32
7.1247e-07 1.0878e-32
7.1366e-07 3.206e-33
7.1485e-07 2.3105e-33
7.1604e-07 8.1021e-32
7.1724e-07 4.5873e-32
7.1844e-07 1.8259e-32
7.1964e-07 7.522e-33
7.2084e-07 3.7059e-33
7.2204e-07 6.6621e-33
7.2324e-07 1.6735e-32
7.2445e-07 8.6032e-33
7.2566e-07 3.1984e-33
7.2687e-07 1.1516e-33
7.2809e-07 2.295e-33
7.293e-07 1.9996e-33
7.3052e-07 6.6189e-34
7.3174e-07 4.756e-35
7.3296e-07 2.6697e-34
7.3418e-07 4.6632e-34
7.3541e-07 2.8471e-34
7.3664e-07 7.9249e-35
7.3787e-07 3.087e-37
7.391e-07 1.7732e-34
7.4033e-07 3.0121e-34
7.4157e-07 1.951e-35
7.428e-07 6.4144e-38
7.4404e-07 3.0786e-38
7.4529e-07 1.6246e-38
7.4653e-07 9.7167e-39
7.4778e-07 1.024e-38
7.4902e-07 1.1582e-38
7.5027e-07 1.2667e-38
7.5153e-07 1.4089e-38
7.5278e-07 1.9974e-38
7.5404e-07 3.2813e-38
7.553e-07 6.6251e-38
7.5656e-07 2.0714e-35
7.5782e-07 2.0945e-34
7.5908e-07 4.3624e-34
7.6035e-07 1.6893e-34
7.6162e-07 6.3304e-38
7.6289e-07 4.5604e-38
7.6417e-07 2.9306e-38
7.6544e-07 2.6021e-38
7.6672e-07 2.7384e-38
7.68e-07 3.4911e-38
7.6928e-07 1.3228e-37
7.7056e-07 2.2548e-36
7.7185e-07 5.9102e-35
7.7314e-07 5.5582e-34
7.7443e-07 3.1251e-34
7.7572e-07 3.5691e-35
7.7702e-07 2.7656e-35
7.7831e-07 4.7655e-35
7.7961e-07 1.0025e-34
7.8091e-07 6.6859e-34
7.8222e-07 4.1601e-31
7.8352e-07 2.5911e-31
7.8483e-07 1.9001e-31
7.8614e-07 5.2648e-32
7.8745e-07 6.1778e-32
7.8877e-07 2.5793e-31
7.9008e-07 1.3851e-31
7.914e-07 7.3373e-32
7.9272e-07 2.6089e-32
7.9405e-07 2.7887e-32
7.9537e-07 2.2729e-32
7.967e-07 1.3077e-32
7.9803e-07 5.1108e-33
7.9936e-07 3.2998e-33
8.007e-07 1.7197e-33
8.0203e-07 8.5605e-33
8.0337e-07 7.3078e-33
8.0471e-07 6.0367e-33
8.0606e-07 2.3724e-33
8.074e-07 8.6735e-34
8.0875e-07 1.2515e-33
8.101e-07 3.0795e-33
8.1145e-07 2.4902e-33
8.1281e-07 1.6467e-33
8.1416e-07 3.1273e-34
8.1552e-07 1.0426e-36
8.1688e-07 1.2129e-36
8.1825e-07 2.9888e-36
8.1961e-07 3.8167e-33
8.2098e-07 5.768e-33
8.2235e-07 4.578e-33
8.2372e-07 1.5879e-33
8.251e-07 3.6436e-34
8.2647e-07 5.8613e-34
8.2785e-07 1.4814e-33
8.2924e-07 2.1561e-32
8.3062e-07 1.5031e-32
8.3201e-07 9.9602e-33
8.334e-07 3.4238e-33
8.3479e-07 1.0104e-33
8.3618e-07 3.4281e-36
8.3758e-07 2.1555e-33
8.3897e-07 6.7555e-33
8.4037e-07 4.3656e-33
8.4178e-07 2.4265e-33
8.4318e-07 3.2014e-34
8.4459e-07 2.6129e-36
8.46e-07 4.681e-37
8.4741e-07 3.3241e-37
8.4883e-07 3.4755e-37
8.5024e-07 2.2644e-35
8.5166e-07 8.037e-34
8.5308e-07 1.4831e-33
8.5451e-07 3.2029e-34
8.5593e-07 3.0991e-35
8.5736e-07 4.6968e-35
8.5879e-07 6.2535e-35
8.6023e-07 7.5666e-35
8.6166e-07 7.3391e-35
8.631e-07 2.5836e-34
8.6454e-07 3.139e-34
8.6598e-07 4.3179e-34
8.6743e-07 1.392e-33
8.6888e-07 1.163e-30
8.7033e-07 1.0198e-30
8.7178e-07 6.6411e-31
8.7324e-07 3.4102e-31
8.7469e-07 2.2503e-31
8.7615e-07 1.2381e-31
8.7762e-07 6.4457e-32
8.7908e-07 3.3182e-32
8.8055e-07 1.4488e-32
8.8202e-07 6.1567e-33
8.8349e-07 1.9189e-33
8.8496e-07 1.8069e-33
8.8644e-07 2.1348e-33
8.8792e-07 5.39e-34
8.894e-07 1.0474e-34
8.9089e-07 1.4512e-35
8.9237e-07 1.1126e-32
8.9386e-07 4.8897e-32
8.9536e-07 2.4491e-32
8.9685e-07 1.6731e-32
8.9835e-07 1.2148e-32
8.9985e-07 5.464e-33
9.0135e-07 3.0212e-33
9.0285e-07 6.6013e-34
9.0436e-07 1.6316e-35
9.0587e-07 2.3421e-35
9.0738e-07 5.2729e-33
9.089e-07 1.006e-31
9.1041e-07 7.1051e-32
9.1193e-07 6.0366e-32
9.1346e-07 2.5186e-32
9.1498e-07 3.8156e-33
9.1651e-07 1.5837e-33
9.1804e-07 1.4098e-33
9.1957e-07 1.0197e-32
9.211e-07 5.8389e-31
9.2264e-07 4.7408e-31
9.2418e-07 4.8584e-31
9.2572e-07 1.7429e-31
9.2727e-07 4.733e-32
9.2882e-07 1.3418e-32
9.3037e-07 1.2169e-31
9.3192e-07 5.9402e-31
9.3348e-07 3.2763e-31
9.3503e-07 3.1935e-31
9.366e-07 1.6431e-31
9.3816e-07 3.8605e-32
9.3972e-07 2.5328e-32
9.4129e-07 1.5871e-32
9.4286e-07 7.479e-33
9.4444e-07 5.5419e-32
9.4601e-07 6.2584e-32
9.4759e-07 3.0151e-32
9.4918e-07 2.0942e-32
9.5076e-07 5.9767e-33
9.5235e-07 8.3808e-33
9.5394e-07 4.7221e-33
9.5553e-07 4.4261e-33
9.5712e-07 6.8424e-34
9.5872e-07 4.472e-36
9.6032e-07 3.0581e-36
9.6192e-07 5.4872e-34
9.6353e-07 4.3342e-33
9.6514e-07 8.1173e-33
9.6675e-07 5.8896e-33
9.6836e-07 3.7359e-33
9.6998e-07 1.1119e-33
9.716e-07 2.1709e-33
9.7322e-07 3.1847e-33
9.7484e-07 2.4621e-34
9.7647e-07 1.4942e-35
9.781e-07 1.1693e-32
9.7973e-07 4.8317e-32
9.8137e-07 2.9005e-32
9.8301e-07 2.6881e-32
9.8465e-07 8.3492e-33
9.8629e-07 9.0918e-34
9.8794e-07 1.892e-33
9.8959e-07 1.5629e-33
9.9124e-07 4.53e-33
9.9289e-07 3.0515e-32
9.9455e-07 2.0808e-32
9.9621e-07 2.2076e-32
9.9787e-07 1.0371e-32
9.9954e-07 3.1292e-33
1.0012e-06 1.7549e-33
1.0029e-06 1.6966e-34
1.0046e-06 3.6349e-36
1.0062e-06 4.0274e-36
1.0079e-06 2.1293e-34
1.0096e-06 2.9929e-33
1.0113e-06 8.2004e-33
1.013e-06 3.1094e-32
1.0147e-06 2.7091e-32
1.0163e-06 6.3236e-33
1.018e-06 3.4915e-33
1.0197e-06 2.1789e-33
1.0214e-06 6.6592e-34
1.0232e-06 4.8868e-34
1.0249e-06 3.3298e-34
1.0266e-06 4.4273e-34
1.0283e-06 1.1811e-33
1.03e-06 2.7867e-33