File: material/gas/smooth_input/co2_uv_vis_toa_T0_P0.txt
2.8e-07 -0
2.8047e-07 -0
2.8094e-07 -0
2.814e-07 -0
2.8187e-07 -0
2.8234e-07 -0
2.8282e-07 -0
2.8329e-07 -0
2.8376e-07 -0
2.8423e-07 -0
2.8471e-07 -0
2.8518e-07 -0
2.8566e-07 -0
2.8614e-07 -0
2.8661e-07 -0
2.8709e-07 -0
2.8757e-07 -0
2.8805e-07 -0
2.8853e-07 -0
2.8901e-07 -0
2.895e-07 -0
2.8998e-07 -0
2.9046e-07 -0
2.9095e-07 -0
2.9143e-07 -0
2.9192e-07 -0
2.9241e-07 -0
2.929e-07 -0
2.9339e-07 -0
2.9388e-07 -0
2.9437e-07 -0
2.9486e-07 -0
2.9535e-07 -0
2.9584e-07 -0
2.9634e-07 -0
2.9683e-07 -0
2.9733e-07 -0
2.9782e-07 -0
2.9832e-07 -0
2.9882e-07 -0
2.9932e-07 -0
2.9982e-07 -0
3.0032e-07 -0
3.0082e-07 -0
3.0132e-07 -0
3.0182e-07 -0
3.0233e-07 -0
3.0283e-07 -0
3.0334e-07 -0
3.0384e-07 -0
3.0435e-07 -0
3.0486e-07 -0
3.0537e-07 -0
3.0588e-07 -0
3.0639e-07 -0
3.069e-07 -0
3.0741e-07 -0
3.0792e-07 -0
3.0844e-07 -0
3.0895e-07 -0
3.0947e-07 -0
3.0998e-07 -0
3.105e-07 -0
3.1102e-07 -0
3.1154e-07 -0
3.1206e-07 -0
3.1258e-07 -0
3.131e-07 -0
3.1362e-07 -0
3.1415e-07 -0
3.1467e-07 -0
3.152e-07 -0
3.1572e-07 -0
3.1625e-07 -0
3.1678e-07 -0
3.1731e-07 -0
3.1784e-07 -0
3.1837e-07 -0
3.189e-07 -0
3.1943e-07 -0
3.1996e-07 -0
3.205e-07 -0
3.2103e-07 -0
3.2157e-07 -0
3.2211e-07 -0
3.2264e-07 -0
3.2318e-07 -0
3.2372e-07 -0
3.2426e-07 -0
3.248e-07 -0
3.2535e-07 -0
3.2589e-07 -0
3.2643e-07 -0
3.2698e-07 -0
3.2752e-07 -0
3.2807e-07 -0
3.2862e-07 -0
3.2917e-07 -0
3.2972e-07 -0
3.3027e-07 -0
3.3082e-07 -0
3.3137e-07 -0
3.3192e-07 -0
3.3248e-07 -0
3.3303e-07 -0
3.3359e-07 -0
3.3414e-07 -0
3.347e-07 -0
3.3526e-07 -0
3.3582e-07 -0
3.3638e-07 -0
3.3694e-07 -0
3.375e-07 -0
3.3807e-07 -0
3.3863e-07 -0
3.392e-07 -0
3.3976e-07 -0
3.4033e-07 -0
3.409e-07 -0
3.4147e-07 -0
3.4204e-07 -0
3.4261e-07 -0
3.4318e-07 -0
3.4375e-07 -0
3.4433e-07 -0
3.449e-07 -0
3.4548e-07 -0
3.4605e-07 -0
3.4663e-07 -0
3.4721e-07 -0
3.4779e-07 -0
3.4837e-07 -0
3.4895e-07 -0
3.4953e-07 -0
3.5012e-07 -0
3.507e-07 -0
3.5129e-07 -0
3.5187e-07 -0
3.5246e-07 -0
3.5305e-07 -0
3.5364e-07 -0
3.5423e-07 -0
3.5482e-07 -0
3.5541e-07 -0
3.5601e-07 -0
3.566e-07 -0
3.572e-07 -0
3.5779e-07 -0
3.5839e-07 -0
3.5899e-07 -0
3.5959e-07 -0
3.6019e-07 -0
3.6079e-07 -0
3.6139e-07 -0
3.6199e-07 -0
3.626e-07 -0
3.632e-07 -0
3.6381e-07 -0
3.6442e-07 -0
3.6502e-07 -0
3.6563e-07 -0
3.6624e-07 -0
3.6686e-07 -0
3.6747e-07 -0
3.6808e-07 -0
3.687e-07 -0
3.6931e-07 -0
3.6993e-07 -0
3.7054e-07 -0
3.7116e-07 -0
3.7178e-07 -0
3.724e-07 -0
3.7302e-07 -0
3.7365e-07 -0
3.7427e-07 -0
3.749e-07 -0
3.7552e-07 -0
3.7615e-07 -0
3.7678e-07 -0
3.7741e-07 -0
3.7804e-07 -0
3.7867e-07 -0
3.793e-07 -0
3.7993e-07 -0
3.8057e-07 -0
3.812e-07 -0
3.8184e-07 -0
3.8247e-07 -0
3.8311e-07 -0
3.8375e-07 -0
3.8439e-07 -0
3.8503e-07 -0
3.8568e-07 -0
3.8632e-07 -0
3.8697e-07 -0
3.8761e-07 -0
3.8826e-07 -0
3.8891e-07 -0
3.8956e-07 -0
3.9021e-07 -0
3.9086e-07 -0
3.9151e-07 -0
3.9216e-07 -0
3.9282e-07 -0
3.9347e-07 -0
3.9413e-07 -0
3.9479e-07 -0
3.9545e-07 -0
3.9611e-07 -0
3.9677e-07 -0
3.9743e-07 -0
3.9809e-07 -0
3.9876e-07 -0
3.9942e-07 -0
4.0009e-07 -0
4.0076e-07 -0
4.0143e-07 -0
4.021e-07 -0
4.0277e-07 -0
4.0344e-07 -0
4.0411e-07 -0
4.0479e-07 -0
4.0546e-07 -0
4.0614e-07 -0
4.0682e-07 -0
4.075e-07 -0
4.0818e-07 -0
4.0886e-07 -0
4.0954e-07 -0
4.1023e-07 -0
4.1091e-07 -0
4.116e-07 -0
4.1228e-07 -0
4.1297e-07 -0
4.1366e-07 -0
4.1435e-07 -0
4.1504e-07 -0
4.1574e-07 -0
4.1643e-07 -0
4.1712e-07 -0
4.1782e-07 -0
4.1852e-07 -0
4.1922e-07 -0
4.1992e-07 -0
4.2062e-07 -0
4.2132e-07 -0
4.2202e-07 -0
4.2273e-07 -0
4.2343e-07 -0
4.2414e-07 -0
4.2485e-07 -0
4.2556e-07 -0
4.2627e-07 -0
4.2698e-07 -0
4.2769e-07 -0
4.2841e-07 -0
4.2912e-07 -0
4.2984e-07 -0
4.3055e-07 -0
4.3127e-07 -0
4.3199e-07 -0
4.3271e-07 -0
4.3344e-07 -0
4.3416e-07 -0
4.3488e-07 -0
4.3561e-07 -0
4.3634e-07 -0
4.3707e-07 -0
4.3779e-07 -0
4.3853e-07 -0
4.3926e-07 -0
4.3999e-07 -0
4.4073e-07 -0
4.4146e-07 -0
4.422e-07 -0
4.4294e-07 -0
4.4368e-07 -0
4.4442e-07 -0
4.4516e-07 -0
4.459e-07 -0
4.4664e-07 -0
4.4739e-07 -0
4.4814e-07 -0
4.4889e-07 -0
4.4963e-07 -0
4.5038e-07 -0
4.5114e-07 -0
4.5189e-07 -0
4.5264e-07 -0
4.534e-07 -0
4.5416e-07 -0
4.5491e-07 -0
4.5567e-07 -0
4.5643e-07 -0
4.572e-07 -0
4.5796e-07 -0
4.5872e-07 -0
4.5949e-07 -0
4.6026e-07 -0
4.6102e-07 -0
4.6179e-07 -0
4.6256e-07 -0
4.6334e-07 -0
4.6411e-07 -0
4.6489e-07 -0
4.6566e-07 -0
4.6644e-07 -0
4.6722e-07 -0
4.68e-07 -0
4.6878e-07 -0
4.6956e-07 -0
4.7034e-07 -0
4.7113e-07 -0
4.7192e-07 -0
4.727e-07 -0
4.7349e-07 -0
4.7428e-07 -0
4.7507e-07 -0
4.7587e-07 -0
4.7666e-07 -0
4.7746e-07 -0
4.7825e-07 -0
4.7905e-07 -0
4.7985e-07 -0
4.8065e-07 -0
4.8146e-07 -0
4.8226e-07 -0
4.8306e-07 -0
4.8387e-07 -0
4.8468e-07 -0
4.8549e-07 -0
4.863e-07 -0
4.8711e-07 -0
4.8792e-07 -0
4.8874e-07 -0
4.8955e-07 -0
4.9037e-07 -0
4.9119e-07 -0
4.9201e-07 -0
4.9283e-07 -0
4.9365e-07 -0
4.9448e-07 -0
4.953e-07 -0
4.9613e-07 -0
4.9696e-07 1.8115e-41
4.9779e-07 1.9764e-39
4.9862e-07 4.2552e-39
4.9945e-07 6.9307e-39
5.0028e-07 1.2886e-38
5.0112e-07 3.4638e-38
5.0195e-07 3.7538e-35
5.0279e-07 2.207e-34
5.0363e-07 1.3826e-35
5.0447e-07 2.8128e-38
5.0531e-07 1.1209e-38
5.0616e-07 6.2354e-39
5.07e-07 4.1209e-39
5.0785e-07 1.5448e-39
5.087e-07 -1.874e-41
5.0954e-07 -0
5.104e-07 -3.748e-42
5.1125e-07 1.0501e-39
5.121e-07 3.6393e-39
5.1296e-07 5.9731e-39
5.1381e-07 1.0622e-38
5.1467e-07 2.302e-38
5.1553e-07 1.5774e-36
5.1639e-07 1.6747e-34
5.1725e-07 1.2535e-34
5.1811e-07 1.4926e-37
5.1898e-07 2.3925e-38
5.1984e-07 1.6298e-38
5.2071e-07 1.8809e-38
5.2158e-07 4.5162e-38
5.2245e-07 6.8126e-35
5.2332e-07 1.384e-34
5.242e-07 6.3295e-36
5.2507e-07 1.758e-38
5.2595e-07 8.1001e-39
5.2683e-07 4.6638e-39
5.2771e-07 3.47e-39
5.2859e-07 3.5594e-39
5.2947e-07 3.7661e-39
5.3035e-07 6.0755e-39
5.3124e-07 1.2422e-38
5.3213e-07 3.7316e-38
5.3301e-07 5.7012e-35
5.339e-07 1.4489e-34
5.3479e-07 2.7657e-36
5.3569e-07 1.9244e-38
5.3658e-07 1.1371e-38
5.3748e-07 1.0239e-38
5.3837e-07 1.2172e-38
5.3927e-07 1.7617e-38
5.4017e-07 3.77e-38
5.4107e-07 1.2543e-35
5.4198e-07 2.4458e-34
5.4288e-07 1.0337e-34
5.4379e-07 5.9438e-35
5.447e-07 1.1729e-35
5.4561e-07 2.3198e-35
5.4652e-07 1.2208e-34
5.4743e-07 6.9866e-35
5.4834e-07 2.2202e-36
5.4926e-07 3.0296e-35
5.5017e-07 3.0357e-34
5.5109e-07 3.1971e-35
5.5201e-07 5.7832e-38
5.5293e-07 2.3895e-38
5.5386e-07 1.5874e-38
5.5478e-07 1.5952e-38
5.5571e-07 2.643e-38
5.5663e-07 1.3214e-35
5.5756e-07 1.5397e-34
5.5849e-07 3.5804e-35
5.5943e-07 3.5221e-38
5.6036e-07 1.743e-38
5.613e-07 1.6329e-38
5.6223e-07 2.4283e-38
5.6317e-07 6.9189e-38
5.6411e-07 1.0176e-34
5.6505e-07 2.2084e-34
5.66e-07 5.4043e-35
5.6694e-07 2.191e-36
5.6789e-07 1.8522e-38
5.6883e-07 9.4668e-39
5.6978e-07 5.7719e-39
5.7074e-07 3.8411e-39
5.7169e-07 1.7078e-39
5.7264e-07 3.2377e-39
5.736e-07 5.1067e-39
5.7456e-07 7.5541e-39
5.7551e-07 1.4155e-38
5.7647e-07 3.6924e-38
5.7744e-07 1.2617e-35
5.784e-07 1.9996e-34
5.7937e-07 1.2065e-34
5.8033e-07 2.7854e-37
5.813e-07 2.5389e-37
5.8227e-07 3.6583e-34
5.8324e-07 4.4464e-34
5.8422e-07 1.9717e-34
5.8519e-07 6.3247e-35
5.8617e-07 2.0567e-34
5.8715e-07 1.6437e-34
5.8813e-07 3.7395e-34
5.8911e-07 7.4981e-35
5.9009e-07 9.2231e-38
5.9108e-07 3.8062e-38
5.9206e-07 2.544e-38
5.9305e-07 2.2439e-38
5.9404e-07 2.6316e-38
5.9503e-07 5.2772e-38
5.9603e-07 1.7637e-35
5.9702e-07 3.1202e-34
5.9802e-07 1.0018e-34
5.9902e-07 4.0149e-35
6.0002e-07 1.7032e-35
6.0102e-07 6.452e-38
6.0202e-07 9.4477e-38
6.0303e-07 2.3223e-37
6.0403e-07 2.1781e-34
6.0504e-07 7.8095e-34
6.0605e-07 4.2983e-34
6.0706e-07 2.8654e-35
6.0808e-07 9.4538e-37
6.0909e-07 9.9279e-34
6.1011e-07 7.4349e-34
6.1113e-07 2.6048e-34
6.1215e-07 6.528e-35
6.1317e-07 1.9525e-34
6.1419e-07 1.2581e-34
6.1522e-07 1.294e-34
6.1624e-07 4.8054e-35
6.1727e-07 8.7833e-38
6.183e-07 4.6959e-38
6.1933e-07 2.9141e-36
6.2037e-07 1.5637e-34
6.214e-07 1.0039e-34
6.2244e-07 1.5249e-37
6.2348e-07 8.6733e-38
6.2452e-07 1.2342e-37
6.2556e-07 2.3718e-37
6.2661e-07 9.2533e-37
6.2765e-07 9.2404e-34
6.287e-07 1.1327e-33
6.2975e-07 4.1754e-34
6.308e-07 1.1121e-34
6.3185e-07 3.0154e-34
6.3291e-07 9.3753e-35
6.3397e-07 1.3776e-37
6.3502e-07 6.8306e-38
6.3608e-07 3.9618e-38
6.3715e-07 2.3816e-38
6.3821e-07 2.1655e-38
6.3927e-07 3.0242e-38
6.4034e-07 6.5756e-38
6.4141e-07 3.8412e-35
6.4248e-07 3.7055e-34
6.4355e-07 1.2269e-34
6.4463e-07 1.9657e-37
6.457e-07 1.329e-37
6.4678e-07 1.9709e-37
6.4786e-07 4.7045e-37
6.4894e-07 2.0464e-36
6.5003e-07 2.0441e-33
6.5111e-07 1.5964e-33
6.522e-07 9.1595e-34
6.5329e-07 3.075e-34
6.5438e-07 1.7172e-35
6.5547e-07 6.7518e-33
6.5656e-07 1.0918e-32
6.5766e-07 4.5615e-33
6.5876e-07 1.2694e-33
6.5986e-07 3.4392e-34
6.6096e-07 5.4387e-33
6.6206e-07 2.824e-33
6.6317e-07 1.1814e-33
6.6427e-07 4.7271e-34
6.6538e-07 2.6049e-34
6.6649e-07 9.0543e-35
6.676e-07 1.4885e-34
6.6872e-07 1.8893e-34
6.6983e-07 2.2226e-34
6.7095e-07 1.4993e-34
6.7207e-07 7.1062e-36
6.7319e-07 4.9012e-38
6.7432e-07 2.7044e-38
6.7544e-07 1.8758e-38
6.7657e-07 1.5583e-38
6.777e-07 1.477e-38
6.7883e-07 1.8599e-38
6.7996e-07 3.3868e-38
6.811e-07 9.3369e-36
6.8224e-07 1.5792e-34
6.8338e-07 1.9937e-34
6.8452e-07 1.4154e-35
6.8566e-07 3.7747e-38
6.868e-07 2.0087e-38
6.8795e-07 1.3938e-38
6.891e-07 1.2784e-38
6.9025e-07 1.5269e-38
6.914e-07 2.3443e-38
6.9255e-07 4.4237e-38
6.9371e-07 5.8183e-37
6.9487e-07 1.7481e-34
6.9603e-07 4.3996e-34
6.9719e-07 3.7855e-35
6.9835e-07 9.206e-38
6.9952e-07 4.474e-38
7.0069e-07 1.0667e-37
7.0186e-07 2.4989e-37
7.0303e-07 3.7937e-37
7.042e-07 5.456e-37
7.0538e-07 8.9552e-37
7.0655e-07 6.0655e-35
7.0773e-07 5.4001e-34
7.0891e-07 1.8344e-34
7.101e-07 1.1318e-32
7.1128e-07 1.487e-32
7.1247e-07 8.0837e-33
7.1366e-07 2.3672e-33
7.1485e-07 1.7253e-33
7.1604e-07 5.9277e-32
7.1724e-07 3.4451e-32
7.1844e-07 1.6242e-32
7.1964e-07 5.7581e-33
7.2084e-07 2.8079e-33
7.2204e-07 4.92e-33
7.2324e-07 1.209e-32
7.2445e-07 6.5215e-33
7.2566e-07 2.6449e-33
7.2687e-07 8.6759e-34
7.2809e-07 1.7163e-33
7.293e-07 1.4793e-33
7.3052e-07 4.9675e-34
7.3174e-07 3.6509e-35
7.3296e-07 2.0822e-34
7.3418e-07 3.5547e-34
7.3541e-07 2.1209e-34
7.3664e-07 4.2384e-35
7.3787e-07 2.1235e-37
7.391e-07 1.3108e-34
7.4033e-07 2.2452e-34
7.4157e-07 1.4537e-35
7.428e-07 4.4009e-38
7.4404e-07 2.1039e-38
7.4529e-07 1.098e-38
7.4653e-07 6.6702e-39
7.4778e-07 7.0862e-39
7.4902e-07 7.977e-39
7.5027e-07 8.6923e-39
7.5153e-07 9.6992e-39
7.5278e-07 1.375e-38
7.5404e-07 2.2551e-38
7.553e-07 4.5555e-38
7.5656e-07 1.5894e-35
7.5782e-07 1.5459e-34
7.5908e-07 3.2112e-34
7.6035e-07 9.9284e-35
7.6162e-07 4.6414e-38
7.6289e-07 3.0899e-38
7.6417e-07 1.9646e-38
7.6544e-07 1.6839e-38
7.6672e-07 1.8669e-38
7.68e-07 2.4501e-38
7.6928e-07 9.131e-38
7.7056e-07 1.5383e-36
7.7185e-07 4.0605e-35
7.7314e-07 4.1088e-34
7.7443e-07 2.3064e-34
7.7572e-07 2.5399e-35
7.7702e-07 1.8587e-35
7.7831e-07 3.2014e-35
7.7961e-07 6.7555e-35
7.8091e-07 4.5315e-34
7.8222e-07 3.0654e-31
7.8352e-07 1.9011e-31
7.8483e-07 1.4098e-31
7.8614e-07 3.7976e-32
7.8745e-07 4.5626e-32
7.8877e-07 1.8998e-31
7.9008e-07 1.0375e-31
7.914e-07 5.6863e-32
7.9272e-07 1.933e-32
7.9405e-07 2.0606e-32
7.9537e-07 1.6827e-32
7.967e-07 9.7794e-33
7.9803e-07 3.8414e-33
7.9936e-07 2.4747e-33
8.007e-07 1.2848e-33
8.0203e-07 6.4359e-33
8.0337e-07 5.3337e-33
8.0471e-07 4.4944e-33
8.0606e-07 1.654e-33
8.074e-07 6.4601e-34
8.0875e-07 9.5922e-34
8.101e-07 2.2743e-33
8.1145e-07 1.8444e-33
8.1281e-07 1.2511e-33
8.1416e-07 2.3484e-34
8.1552e-07 7.1841e-37
8.1688e-07 8.3642e-37
8.1825e-07 2.0563e-36
8.1961e-07 2.9941e-33
8.2098e-07 4.4148e-33
8.2235e-07 3.4447e-33
8.2372e-07 1.2252e-33
8.251e-07 2.7575e-34
8.2647e-07 4.5673e-34
8.2785e-07 1.1142e-33
8.2924e-07 1.6268e-32
8.3062e-07 1.1275e-32
8.3201e-07 7.478e-33
8.334e-07 2.5559e-33
8.3479e-07 7.9194e-34
8.3618e-07 2.3674e-36
8.3758e-07 1.5958e-33
8.3897e-07 5.0822e-33
8.4037e-07 3.2274e-33
8.4178e-07 1.8084e-33
8.4318e-07 2.3066e-34
8.4459e-07 1.8229e-36
8.46e-07 3.2419e-37
8.4741e-07 2.2998e-37
8.4883e-07 2.4037e-37
8.5024e-07 1.6275e-35
8.5166e-07 5.9618e-34
8.5308e-07 1.0992e-33
8.5451e-07 2.299e-34
8.5593e-07 2.141e-35
8.5736e-07 3.2454e-35
8.5879e-07 4.3181e-35
8.6023e-07 5.2116e-35
8.6166e-07 5.041e-35
8.631e-07 1.8687e-34
8.6454e-07 2.2263e-34
8.6598e-07 3.0235e-34
8.6743e-07 9.557e-34
8.6888e-07 8.5991e-31
8.7033e-07 7.5239e-31
8.7178e-07 4.8895e-31
8.7324e-07 2.4985e-31
8.7469e-07 1.6539e-31
8.7615e-07 9.1425e-32
8.7762e-07 4.7501e-32
8.7908e-07 2.4531e-32
8.8055e-07 1.0702e-32
8.8202e-07 4.5378e-33
8.8349e-07 1.378e-33
8.8496e-07 1.3475e-33
8.8644e-07 1.5171e-33
8.8792e-07 4.0023e-34
8.894e-07 7.7764e-35
8.9089e-07 1.0027e-35
8.9237e-07 8.3199e-33
8.9386e-07 3.5949e-32
8.9536e-07 1.8367e-32
8.9685e-07 1.2874e-32
8.9835e-07 8.8234e-33
8.9985e-07 3.4367e-33
9.0135e-07 2.3838e-33
9.0285e-07 4.9509e-34
9.0436e-07 1.1384e-35
9.0587e-07 1.6234e-35
9.0738e-07 3.0506e-33
9.089e-07 7.5068e-32
9.1041e-07 5.216e-32
9.1193e-07 4.3994e-32
9.1346e-07 1.8974e-32
9.1498e-07 2.7974e-33
9.1651e-07 1.171e-33
9.1804e-07 1.0004e-33
9.1957e-07 7.2437e-33
9.211e-07 4.3087e-31
9.2264e-07 3.4905e-31
9.2418e-07 3.4442e-31
9.2572e-07 1.2981e-31
9.2727e-07 3.5295e-32
9.2882e-07 9.9213e-33
9.3037e-07 1.0262e-31
9.3192e-07 4.364e-31
9.3348e-07 2.6132e-31
9.3503e-07 2.4063e-31
9.366e-07 1.1963e-31
9.3816e-07 3.0397e-32
9.3972e-07 1.9157e-32
9.4129e-07 1.216e-32
9.4286e-07 5.6875e-33
9.4444e-07 3.9513e-32
9.4601e-07 4.2609e-32
9.4759e-07 2.1664e-32
9.4918e-07 1.4689e-32
9.5076e-07 4.6595e-33
9.5235e-07 6.4871e-33
9.5394e-07 3.6892e-33
9.5553e-07 3.4299e-33
9.5712e-07 5.2951e-34
9.5872e-07 3.1809e-36
9.6032e-07 2.0921e-36
9.6192e-07 4.4285e-34
9.6353e-07 3.1936e-33
9.6514e-07 5.8854e-33
9.6675e-07 4.2292e-33
9.6836e-07 2.7473e-33
9.6998e-07 8.2382e-34
9.716e-07 1.5981e-33
9.7322e-07 2.3179e-33
9.7484e-07 1.816e-34
9.7647e-07 1.0118e-35
9.781e-07 8.867e-33
9.7973e-07 3.589e-32
9.8137e-07 2.1707e-32
9.8301e-07 1.9979e-32
9.8465e-07 6.1511e-33
9.8629e-07 6.9314e-34
9.8794e-07 1.3953e-33
9.8959e-07 1.1619e-33
9.9124e-07 3.3458e-33
9.9289e-07 2.257e-32
9.9455e-07 1.5252e-32
9.9621e-07 1.6187e-32
9.9787e-07 7.6456e-33
9.9954e-07 2.3187e-33
1.0012e-06 1.3059e-33
1.0029e-06 1.2434e-34
1.0046e-06 2.5039e-36
1.0062e-06 2.7707e-36
1.0079e-06 1.5781e-34
1.0096e-06 2.2073e-33
1.0113e-06 6.0327e-33
1.013e-06 2.2746e-32
1.0147e-06 1.9762e-32
1.0163e-06 4.6346e-33
1.018e-06 2.5735e-33
1.0197e-06 1.5811e-33
1.0214e-06 4.8479e-34
1.0232e-06 3.4801e-34
1.0249e-06 2.2895e-34
1.0266e-06 3.0447e-34
1.0283e-06 8.367e-34
1.03e-06 1.9961e-33