File: material/gas/smooth_input/co2_uv_vis_T1_P0.txt
2.8e-07 0
2.8037e-07 0
2.8075e-07 0
2.8112e-07 0
2.815e-07 0
2.8187e-07 0
2.8225e-07 0
2.8263e-07 0
2.8301e-07 0
2.8338e-07 0
2.8376e-07 0
2.8414e-07 0
2.8452e-07 0
2.849e-07 0
2.8528e-07 0
2.8566e-07 0
2.8604e-07 0
2.8642e-07 0
2.8681e-07 0
2.8719e-07 0
2.8757e-07 0
2.8796e-07 0
2.8834e-07 0
2.8873e-07 0
2.8911e-07 0
2.895e-07 0
2.8989e-07 0
2.9027e-07 0
2.9066e-07 0
2.9105e-07 0
2.9144e-07 0
2.9183e-07 0
2.9222e-07 0
2.9261e-07 0
2.93e-07 0
2.9339e-07 0
2.9378e-07 0
2.9417e-07 0
2.9456e-07 0
2.9496e-07 0
2.9535e-07 0
2.9575e-07 0
2.9614e-07 0
2.9654e-07 0
2.9693e-07 0
2.9733e-07 0
2.9773e-07 0
2.9812e-07 0
2.9852e-07 0
2.9892e-07 0
2.9932e-07 0
2.9972e-07 0
3.0012e-07 0
3.0052e-07 0
3.0092e-07 0
3.0132e-07 0
3.0173e-07 0
3.0213e-07 0
3.0253e-07 0
3.0294e-07 0
3.0334e-07 0
3.0375e-07 0
3.0415e-07 0
3.0456e-07 0
3.0496e-07 0
3.0537e-07 0
3.0578e-07 0
3.0619e-07 0
3.066e-07 0
3.0701e-07 0
3.0742e-07 0
3.0783e-07 0
3.0824e-07 0
3.0865e-07 0
3.0906e-07 0
3.0947e-07 0
3.0989e-07 0
3.103e-07 0
3.1071e-07 0
3.1113e-07 0
3.1155e-07 0
3.1196e-07 0
3.1238e-07 0
3.1279e-07 0
3.1321e-07 0
3.1363e-07 0
3.1405e-07 0
3.1447e-07 0
3.1489e-07 0
3.1531e-07 0
3.1573e-07 0
3.1615e-07 0
3.1657e-07 0
3.17e-07 0
3.1742e-07 0
3.1784e-07 0
3.1827e-07 0
3.1869e-07 0
3.1912e-07 0
3.1955e-07 0
3.1997e-07 0
3.204e-07 0
3.2083e-07 0
3.2126e-07 0
3.2168e-07 0
3.2211e-07 0
3.2254e-07 0
3.2297e-07 0
3.2341e-07 0
3.2384e-07 0
3.2427e-07 0
3.247e-07 0
3.2514e-07 0
3.2557e-07 0
3.2601e-07 0
3.2644e-07 0
3.2688e-07 0
3.2731e-07 0
3.2775e-07 0
3.2819e-07 0
3.2863e-07 0
3.2907e-07 0
3.295e-07 0
3.2994e-07 0
3.3039e-07 0
3.3083e-07 0
3.3127e-07 0
3.3171e-07 0
3.3215e-07 0
3.326e-07 0
3.3304e-07 0
3.3349e-07 0
3.3393e-07 0
3.3438e-07 0
3.3482e-07 0
3.3527e-07 0
3.3572e-07 0
3.3617e-07 0
3.3662e-07 0
3.3706e-07 0
3.3752e-07 0
3.3797e-07 0
3.3842e-07 0
3.3887e-07 0
3.3932e-07 0
3.3977e-07 0
3.4023e-07 0
3.4068e-07 0
3.4114e-07 0
3.4159e-07 0
3.4205e-07 0
3.4251e-07 0
3.4296e-07 0
3.4342e-07 0
3.4388e-07 0
3.4434e-07 0
3.448e-07 0
3.4526e-07 0
3.4572e-07 0
3.4618e-07 0
3.4664e-07 0
3.4711e-07 0
3.4757e-07 0
3.4803e-07 0
3.485e-07 0
3.4896e-07 0
3.4943e-07 0
3.499e-07 0
3.5036e-07 0
3.5083e-07 0
3.513e-07 0
3.5177e-07 0
3.5224e-07 0
3.5271e-07 0
3.5318e-07 0
3.5365e-07 0
3.5412e-07 0
3.546e-07 0
3.5507e-07 0
3.5555e-07 0
3.5602e-07 0
3.565e-07 0
3.5697e-07 0
3.5745e-07 0
3.5793e-07 0
3.584e-07 0
3.5888e-07 0
3.5936e-07 0
3.5984e-07 0
3.6032e-07 0
3.608e-07 0
3.6128e-07 0
3.6177e-07 0
3.6225e-07 0
3.6273e-07 0
3.6322e-07 0
3.637e-07 0
3.6419e-07 0
3.6468e-07 0
3.6516e-07 0
3.6565e-07 0
3.6614e-07 0
3.6663e-07 0
3.6712e-07 0
3.6761e-07 0
3.681e-07 0
3.6859e-07 0
3.6908e-07 0
3.6957e-07 0
3.7007e-07 0
3.7056e-07 0
3.7106e-07 0
3.7155e-07 0
3.7205e-07 0
3.7255e-07 0
3.7304e-07 0
3.7354e-07 0
3.7404e-07 0
3.7454e-07 0
3.7504e-07 0
3.7554e-07 0
3.7604e-07 0
3.7654e-07 0
3.7705e-07 0
3.7755e-07 0
3.7805e-07 0
3.7856e-07 0
3.7906e-07 0
3.7957e-07 0
3.8008e-07 0
3.8058e-07 0
3.8109e-07 0
3.816e-07 0
3.8211e-07 0
3.8262e-07 0
3.8313e-07 0
3.8364e-07 0
3.8416e-07 0
3.8467e-07 0
3.8518e-07 0
3.857e-07 0
3.8621e-07 0
3.8673e-07 0
3.8724e-07 0
3.8776e-07 0
3.8828e-07 0
3.888e-07 0
3.8932e-07 0
3.8984e-07 0
3.9036e-07 0
3.9088e-07 0
3.914e-07 0
3.9192e-07 0
3.9245e-07 0
3.9297e-07 0
3.935e-07 0
3.9402e-07 0
3.9455e-07 0
3.9507e-07 0
3.956e-07 0
3.9613e-07 0
3.9666e-07 0
3.9719e-07 0
3.9772e-07 0
3.9825e-07 0
3.9878e-07 0
3.9931e-07 0
3.9985e-07 0
4.0038e-07 0
4.0092e-07 0
4.0145e-07 0
4.0199e-07 0
4.0252e-07 0
4.0306e-07 0
4.036e-07 0
4.0414e-07 0
4.0468e-07 0
4.0522e-07 0
4.0576e-07 0
4.063e-07 0
4.0684e-07 0
4.0739e-07 0
4.0793e-07 0
4.0848e-07 0
4.0902e-07 0
4.0957e-07 0
4.1011e-07 0
4.1066e-07 0
4.1121e-07 0
4.1176e-07 0
4.1231e-07 0
4.1286e-07 0
4.1341e-07 0
4.1396e-07 0
4.1452e-07 0
4.1507e-07 0
4.1562e-07 0
4.1618e-07 0
4.1673e-07 0
4.1729e-07 0
4.1785e-07 0
4.1841e-07 0
4.1897e-07 0
4.1952e-07 0
4.2008e-07 0
4.2065e-07 0
4.2121e-07 0
4.2177e-07 0
4.2233e-07 0
4.229e-07 0
4.2346e-07 0
4.2403e-07 0
4.2459e-07 0
4.2516e-07 0
4.2573e-07 0
4.263e-07 0
4.2687e-07 0
4.2744e-07 0
4.2801e-07 0
4.2858e-07 0
4.2915e-07 0
4.2972e-07 0
4.303e-07 0
4.3087e-07 0
4.3145e-07 0
4.3202e-07 0
4.326e-07 0
4.3318e-07 0
4.3376e-07 0
4.3434e-07 0
4.3492e-07 0
4.355e-07 0
4.3608e-07 0
4.3666e-07 0
4.3724e-07 0
4.3783e-07 0
4.3841e-07 0
4.39e-07 0
4.3958e-07 0
4.4017e-07 0
4.4076e-07 0
4.4135e-07 0
4.4194e-07 0
4.4253e-07 0
4.4312e-07 0
4.4371e-07 0
4.443e-07 0
4.4489e-07 0
4.4549e-07 0
4.4608e-07 0
4.4668e-07 0
4.4728e-07 0
4.4787e-07 0
4.4847e-07 0
4.4907e-07 0
4.4967e-07 0
4.5027e-07 0
4.5087e-07 0
4.5147e-07 0
4.5208e-07 0
4.5268e-07 0
4.5328e-07 0
4.5389e-07 0
4.545e-07 0
4.551e-07 0
4.5571e-07 0
4.5632e-07 0
4.5693e-07 0
4.5754e-07 0
4.5815e-07 0
4.5876e-07 0
4.5937e-07 0
4.5999e-07 0
4.606e-07 0
4.6122e-07 0
4.6183e-07 0
4.6245e-07 0
4.6307e-07 0
4.6368e-07 0
4.643e-07 0
4.6492e-07 0
4.6554e-07 0
4.6617e-07 0
4.6679e-07 0
4.6741e-07 0
4.6804e-07 0
4.6866e-07 0
4.6929e-07 0
4.6991e-07 0
4.7054e-07 0
4.7117e-07 0
4.718e-07 0
4.7243e-07 0
4.7306e-07 0
4.7369e-07 0
4.7432e-07 0
4.7496e-07 0
4.7559e-07 0
4.7623e-07 0
4.7686e-07 0
4.775e-07 0
4.7814e-07 0
4.7878e-07 0
4.7941e-07 0
4.8005e-07 0
4.807e-07 0
4.8134e-07 0
4.8198e-07 0
4.8262e-07 0
4.8327e-07 0
4.8391e-07 0
4.8456e-07 0
4.8521e-07 0
4.8585e-07 0
4.865e-07 0
4.8715e-07 0
4.878e-07 0
4.8846e-07 0
4.8911e-07 0
4.8976e-07 0
4.9041e-07 0
4.9107e-07 0
4.9173e-07 0
4.9238e-07 0
4.9304e-07 0
4.937e-07 0
4.9436e-07 0
4.9502e-07 0
4.9568e-07 0
4.9634e-07 7.839e-42
4.97e-07 1.2044e-40
4.9767e-07 2.1343e-39
4.9833e-07 5.0639e-39
4.99e-07 7.588e-39
4.9966e-07 1.1453e-38
5.0033e-07 1.9086e-38
5.01e-07 4.1363e-38
5.0167e-07 7.2338e-36
5.0234e-07 2.0411e-34
5.0301e-07 2.2377e-34
5.0368e-07 1.3915e-35
5.0435e-07 5.5335e-38
5.0503e-07 2.0747e-38
5.057e-07 1.1997e-38
5.0637e-07 7.8809e-39
5.0705e-07 5.5228e-39
5.0773e-07 2.5657e-39
5.0841e-07 3.5767e-40
5.0909e-07 3.5765e-42
5.0976e-07 0
5.1045e-07 1.0265e-40
5.1113e-07 9.4739e-40
5.1181e-07 4.1203e-39
5.1249e-07 6.7517e-39
5.1318e-07 9.8925e-39
5.1386e-07 1.5735e-38
5.1455e-07 2.8853e-38
5.1524e-07 1.3926e-37
5.1592e-07 4.3735e-35
5.1661e-07 3.5548e-34
5.173e-07 1.6462e-34
5.1799e-07 1.4419e-36
5.1869e-07 4.5024e-38
5.1938e-07 2.6853e-38
5.2007e-07 2.3005e-38
5.2077e-07 2.7734e-38
5.2146e-07 1.2245e-37
5.2216e-07 3.2567e-35
5.2285e-07 2.1723e-34
5.2355e-07 9.6873e-35
5.2425e-07 4.7489e-36
5.2495e-07 2.8642e-38
5.2565e-07 1.4502e-38
5.2635e-07 8.7875e-39
5.2706e-07 5.7815e-39
5.2776e-07 4.9641e-39
5.2847e-07 5.2564e-39
5.2917e-07 4.9909e-39
5.2988e-07 6.6466e-39
5.3059e-07 1.0393e-38
5.3129e-07 1.8414e-38
5.32e-07 4.5843e-38
5.3271e-07 1.8085e-35
5.3343e-07 2.0095e-34
5.3414e-07 1.2526e-34
5.3485e-07 6.7984e-36
5.3557e-07 3.1771e-38
5.3628e-07 1.7843e-38
5.37e-07 1.499e-38
5.3771e-07 1.5033e-38
5.3843e-07 1.7946e-38
5.3915e-07 2.3792e-38
5.3987e-07 3.8769e-38
5.4059e-07 2.4543e-37
5.4131e-07 9.1506e-35
5.4204e-07 3.4928e-34
5.4276e-07 1.6305e-34
5.4349e-07 8.4405e-35
5.4421e-07 5.2525e-35
5.4494e-07 1.2118e-36
5.4567e-07 1.5805e-35
5.4639e-07 1.7757e-34
5.4712e-07 8.9328e-35
5.4785e-07 2.2477e-35
5.4859e-07 1.482e-36
5.4932e-07 9.672e-35
5.5005e-07 3.7026e-34
5.5079e-07 1.7101e-34
5.5152e-07 1.5379e-35
5.5226e-07 6.0998e-38
5.53e-07 3.2975e-38
5.5373e-07 2.3545e-38
5.5447e-07 2.1665e-38
5.5521e-07 2.684e-38
5.5596e-07 5.5568e-38
5.567e-07 3.2797e-35
5.5744e-07 2.0139e-34
5.5819e-07 9.2428e-35
5.5893e-07 6.0807e-36
5.5968e-07 3.8043e-38
5.6042e-07 2.4507e-38
5.6117e-07 2.3088e-38
5.6192e-07 2.9073e-38
5.6267e-07 4.9823e-38
5.6342e-07 6.2139e-36
5.6418e-07 1.5284e-34
5.6493e-07 2.8045e-34
5.6568e-07 1.1375e-34
5.6644e-07 3.3223e-35
5.672e-07 9.8581e-38
5.6795e-07 2.493e-38
5.6871e-07 1.4535e-38
5.6947e-07 9.5833e-39
5.7023e-07 6.8364e-39
5.7099e-07 4.4014e-39
5.7176e-07 2.4359e-39
5.7252e-07 4.2629e-39
5.7328e-07 6.3824e-39
5.7405e-07 8.6164e-39
5.7482e-07 1.2727e-38
5.7558e-07 2.1309e-38
5.7635e-07 4.6311e-38
5.7712e-07 2.5683e-36
5.7789e-07 7.5461e-35
5.7866e-07 3.8301e-34
5.7944e-07 9.8817e-35
5.8021e-07 1.5637e-36
5.8098e-07 2.4701e-37
5.8176e-07 4.4844e-35
5.8254e-07 9.1627e-34
5.8331e-07 6.0299e-34
5.8409e-07 2.93e-34
5.8487e-07 1.1481e-34
5.8565e-07 1.1042e-34
5.8644e-07 2.8965e-34
5.8722e-07 1.8937e-34
5.88e-07 4.832e-34
5.8879e-07 2.4125e-34
5.8958e-07 1.5503e-35
5.9036e-07 9.745e-38
5.9115e-07 5.3003e-38
5.9194e-07 3.8197e-38
5.9273e-07 3.2959e-38
5.9352e-07 3.2779e-38
5.9431e-07 4.4009e-38
5.9511e-07 9.0805e-38
5.959e-07 2.055e-35
5.967e-07 2.885e-34
5.975e-07 3.9637e-34
5.9829e-07 6.431e-35
5.9909e-07 4.6771e-35
5.9989e-07 2.819e-35
6.0069e-07 4.0807e-37
6.015e-07 1.0129e-37
6.023e-07 1.6459e-37
6.031e-07 3.7477e-37
6.0391e-07 1.9498e-34
6.0471e-07 9.6236e-34
6.0552e-07 9.1199e-34
6.0633e-07 4.5857e-34
6.0714e-07 3.4706e-35
6.0795e-07 1.8246e-36
6.0876e-07 5.7775e-34
6.0958e-07 1.4142e-33
6.1039e-07 7.5437e-34
6.112e-07 3.1538e-34
6.1202e-07 8.8875e-35
6.1284e-07 2.0438e-34
6.1366e-07 1.313e-34
6.1448e-07 1.9311e-34
6.153e-07 1.499e-34
6.1612e-07 9.773e-35
6.1694e-07 5.6842e-36
6.1776e-07 7.4744e-38
6.1859e-07 7.463e-38
6.1942e-07 5.3146e-36
6.2024e-07 1.4288e-34
6.2107e-07 2.3678e-34
6.219e-07 2.7714e-35
6.2273e-07 2.0878e-37
6.2356e-07 1.2727e-37
6.2439e-07 1.6846e-37
6.2523e-07 2.6622e-37
6.2606e-07 5.5147e-37
6.269e-07 8.7525e-35
6.2774e-07 1.52e-33
6.2857e-07 1.6247e-33
6.2941e-07 7.4285e-34
6.3025e-07 2.6049e-34
6.311e-07 2.6492e-34
6.3194e-07 4.2979e-34
6.3278e-07 1.698e-34
6.3363e-07 1.2857e-35
6.3447e-07 1.3027e-37
6.3532e-07 8.6381e-38
6.3617e-07 5.4275e-38
6.3702e-07 3.5705e-38
6.3787e-07 3.0398e-38
6.3872e-07 3.4952e-38
6.3957e-07 5.1341e-38
6.4043e-07 1.2157e-37
6.4128e-07 2.5848e-35
6.4214e-07 3.5206e-34
6.43e-07 5.013e-34
6.4386e-07 8.0195e-35
6.4472e-07 3.9356e-37
6.4558e-07 1.9062e-37
6.4644e-07 2.3853e-37
6.473e-07 4.2683e-37
6.4817e-07 9.1031e-37
6.4903e-07 8.5952e-35
6.499e-07 2.6111e-33
6.5077e-07 2.6952e-33
6.5164e-07 2.0193e-33
6.5251e-07 9.243e-34
6.5338e-07 3.0474e-34
6.5425e-07 3.0407e-35
6.5512e-07 3.2263e-33
6.56e-07 1.6983e-32
6.5687e-07 1.1513e-32
6.5775e-07 5.4843e-33
6.5863e-07 1.7334e-33
6.5951e-07 5.8894e-34
6.6039e-07 2.8961e-33
6.6127e-07 6.5095e-33
6.6215e-07 4.093e-33
6.6304e-07 1.8403e-33
6.6392e-07 7.8724e-34
6.6481e-07 5.5712e-34
6.657e-07 2.8308e-34
6.6659e-07 1.1409e-34
6.6748e-07 1.6315e-34
6.6837e-07 3.1227e-34
6.6926e-07 2.205e-34
6.7015e-07 3.4325e-34
6.7105e-07 1.3721e-34
6.7195e-07 5.4821e-36
6.7284e-07 9.3934e-38
6.7374e-07 5.1601e-38
6.7464e-07 3.4936e-38
6.7554e-07 2.6764e-38
6.7644e-07 2.3304e-38
6.7735e-07 2.1317e-38
6.7825e-07 2.3195e-38
6.7916e-07 3.0759e-38
6.8006e-07 5.3365e-38
6.8097e-07 5.5159e-36
6.8188e-07 1.078e-34
6.8279e-07 3.7829e-34
6.837e-07 1.3032e-34
6.8462e-07 2.4572e-36
6.8553e-07 6.0889e-38
6.8645e-07 3.3428e-38
6.8736e-07 2.4608e-38
6.8828e-07 1.8907e-38
6.892e-07 1.9958e-38
6.9012e-07 2.1494e-38
6.9104e-07 2.8188e-38
6.9196e-07 4.3383e-38
6.9289e-07 8.4292e-38
6.9381e-07 2.3899e-35
6.9474e-07 1.7698e-34
6.9567e-07 7.3188e-34
6.966e-07 2.7994e-34
6.9753e-07 6.8864e-36
6.9846e-07 1.2458e-37
6.9939e-07 6.8957e-38
7.0032e-07 9.9873e-38
7.0126e-07 2.5969e-37
7.022e-07 4.2415e-37
7.0313e-07 5.7001e-37
7.0407e-07 7.6704e-37
7.0501e-07 1.0734e-36
7.0595e-07 3.8547e-36
7.069e-07 2.2469e-34
7.0784e-07 8.3e-34
7.0879e-07 3.0836e-34
7.0973e-07 3.4059e-33
7.1068e-07 2.6062e-32
7.1163e-07 1.8067e-32
7.1258e-07 1.0457e-32
7.1353e-07 3.6964e-33
7.1448e-07 1.1768e-33
7.1544e-07 3.0453e-32
7.1639e-07 7.7695e-32
7.1735e-07 3.9087e-32
7.1831e-07 2.7025e-32
7.1927e-07 1.163e-32
7.2023e-07 5.5318e-33
7.2119e-07 3.2059e-33
7.2215e-07 7.1591e-33
7.2312e-07 1.7239e-32
7.2408e-07 1.0197e-32
7.2505e-07 4.5502e-33
7.2602e-07 1.5577e-33
7.2699e-07 1.0088e-33
7.2796e-07 2.3451e-33
7.2893e-07 1.6588e-33
7.299e-07 1.3286e-33
7.3088e-07 3.4187e-34
7.3185e-07 8.2187e-36
7.3283e-07 2.068e-34
7.3381e-07 5.8704e-34
7.3479e-07 3.9934e-34
7.3577e-07 2.259e-34
7.3675e-07 5.0542e-35
7.3774e-07 4.7221e-37
7.3872e-07 5.8031e-35
7.3971e-07 3.6846e-34
7.407e-07 1.837e-34
7.4169e-07 1.3314e-35
7.4268e-07 7.2088e-38
7.4367e-07 3.7152e-38
7.4466e-07 2.2264e-38
7.4565e-07 1.3611e-38
7.4665e-07 9.7688e-39
7.4765e-07 1.0063e-38
7.4865e-07 1.1256e-38
7.4965e-07 1.2266e-38
7.5065e-07 1.2929e-38
7.5165e-07 1.4458e-38
7.5265e-07 1.9031e-38
7.5366e-07 2.7696e-38
7.5466e-07 4.4757e-38
7.5567e-07 9.079e-38
7.5668e-07 7.6573e-36
7.5769e-07 1.7554e-34
7.587e-07 4.7248e-34
7.5972e-07 2.5672e-34
7.6073e-07 1.0113e-35
7.6175e-07 6.638e-38
7.6276e-07 4.6685e-38
7.6378e-07 3.2541e-38
7.648e-07 2.7037e-38
7.6582e-07 2.4619e-38
7.6685e-07 2.6969e-38
7.6787e-07 3.3986e-38
7.689e-07 5.3702e-38
7.6992e-07 7.5959e-37
7.7095e-07 3.4313e-36
7.7198e-07 5.3631e-35
7.7301e-07 5.2359e-34
7.7404e-07 4.876e-34
7.7508e-07 9.837e-35
7.7611e-07 2.321e-35
7.7715e-07 2.9092e-35
7.7819e-07 4.4835e-35
7.7922e-07 7.6997e-35
7.8026e-07 1.8132e-34
7.8131e-07 6.0067e-32
7.8235e-07 4.5179e-31
7.8339e-07 2.7996e-31
7.8444e-07 2.2356e-31
7.8549e-07 1.0825e-31
7.8654e-07 5.4943e-32
7.8759e-07 6.1836e-32
7.8864e-07 2.8148e-31
7.8969e-07 1.5716e-31
7.9075e-07 1.1484e-31
7.918e-07 4.9014e-32
7.9286e-07 2.1888e-32
7.9392e-07 2.7541e-32
7.9498e-07 2.513e-32
7.9604e-07 1.6925e-32
7.971e-07 8.5685e-33
7.9817e-07 4.918e-33
7.9923e-07 3.1691e-33
8.003e-07 2.1963e-33
8.0137e-07 1.8517e-33
8.0244e-07 1.4221e-32
8.0351e-07 6.981e-33
8.0458e-07 6.2394e-33
8.0566e-07 3.5057e-33
8.0673e-07 1.2458e-33
8.0781e-07 7.4851e-34
8.0889e-07 1.53e-33
8.0997e-07 3.6807e-33
8.1105e-07 2.1647e-33
8.1213e-07 3.1616e-33
8.1322e-07 1.1146e-33
8.1431e-07 2.0506e-34
8.1539e-07 1.4004e-36
8.1648e-07 1.0778e-36
8.1757e-07 1.6466e-36
8.1866e-07 1.2948e-34
8.1976e-07 5.3061e-33
8.2085e-07 6.2171e-33
8.2195e-07 4.6551e-33
8.2304e-07 3.3072e-33
8.2414e-07 1.0597e-33
8.2524e-07 3.7639e-34
8.2635e-07 6.0362e-34
8.2745e-07 1.8372e-34
8.2855e-07 1.0599e-32
8.2966e-07 2.0162e-32
8.3077e-07 1.2893e-32
8.3188e-07 1.2154e-32
8.3299e-07 4.5715e-33
8.341e-07 2.4482e-33
8.3522e-07 3.2859e-34
8.3633e-07 3.658e-36
8.3745e-07 2.025e-33
8.3857e-07 7.4185e-33
8.3969e-07 4.0912e-33
8.4081e-07 3.8125e-33
8.4193e-07 1.8958e-33
8.4305e-07 5.4666e-34
8.4418e-07 3.0686e-35
8.4531e-07 6.3074e-37
8.4644e-07 4.0666e-37
8.4757e-07 3.2327e-37
8.487e-07 3.4114e-37
8.4983e-07 1.758e-36
8.5097e-07 3.3108e-34
8.521e-07 1.175e-33
8.5324e-07 1.5056e-33
8.5438e-07 3.7701e-34
8.5552e-07 4.2766e-35
8.5666e-07 3.9271e-35
8.5781e-07 5.1423e-35
8.5895e-07 6.48e-35
8.601e-07 7.5862e-35
8.6125e-07 7.2052e-35
8.624e-07 1.1409e-34
8.6355e-07 2.8197e-34
8.647e-07 3.1075e-34
8.6586e-07 4.054e-34
8.6701e-07 7.9525e-34
8.6817e-07 3.1268e-31
8.6933e-07 1.5182e-30
8.7049e-07 9.0558e-31
8.7165e-07 7.058e-31
8.7282e-07 3.8767e-31
8.7398e-07 3.3461e-31
8.7515e-07 1.6026e-31
8.7632e-07 1.1102e-31
8.7749e-07 6.7242e-32
8.7866e-07 4.2695e-32
8.7983e-07 2.0512e-32
8.8101e-07 1.2941e-32
8.8218e-07 5.4044e-33
8.8336e-07 2.2621e-33
8.8454e-07 1.5656e-33
8.8572e-07 2.6137e-33
8.8691e-07 1.4792e-33
8.8809e-07 5.2468e-34
8.8928e-07 1.7068e-34
8.9046e-07 1.6404e-35
8.9165e-07 2.6035e-34
8.9284e-07 2.7082e-32
8.9404e-07 5.0641e-32
8.9523e-07 2.7266e-32
8.9642e-07 1.9757e-32
8.9762e-07 1.1604e-32
8.9882e-07 1.1864e-32
9.0002e-07 4.8482e-33
9.0122e-07 3.6827e-33
9.0243e-07 1.1875e-33
9.0363e-07 1.3601e-34
9.0484e-07 1.4786e-35
9.0605e-07 2.701e-35
9.0726e-07 2.1862e-33
9.0847e-07 6.3036e-32
9.0968e-07 1.0514e-31
9.1089e-07 7.3003e-32
9.1211e-07 5.0392e-32
9.1333e-07 2.3709e-32
9.1455e-07 6.93e-33
9.1577e-07 1.6153e-33
9.1699e-07 2.0027e-33
9.1822e-07 1.0136e-33
9.1944e-07 6.8571e-33
9.2067e-07 3.9387e-31
9.219e-07 6.4992e-31
9.2313e-07 4.6562e-31
9.2436e-07 4.4633e-31
9.256e-07 1.5875e-31
9.2683e-07 4.2713e-32
9.2807e-07 1.9778e-32
9.2931e-07 8.6334e-33
9.3055e-07 2.3289e-31
9.3179e-07 5.9938e-31
9.3304e-07 3.9852e-31
9.3429e-07 3.5499e-31
9.3553e-07 2.991e-31
9.3678e-07 1.3778e-31
9.3803e-07 4.0562e-32
9.3929e-07 2.4873e-32
9.4054e-07 2.225e-32
9.418e-07 1.1968e-32
9.4305e-07 6.5981e-33
9.4431e-07 3.8052e-32
9.4557e-07 8.2703e-32
9.4684e-07 2.6866e-32
9.481e-07 3.0926e-32
9.4937e-07 2.4117e-32
9.5e-07 1.1936e-32