File: material/gas/smooth_input/co2_uv_vis_T0_P1.txt
2.8e-07 0
2.8037e-07 0
2.8075e-07 0
2.8112e-07 0
2.815e-07 0
2.8187e-07 0
2.8225e-07 0
2.8263e-07 0
2.8301e-07 0
2.8338e-07 0
2.8376e-07 0
2.8414e-07 0
2.8452e-07 0
2.849e-07 0
2.8528e-07 0
2.8566e-07 0
2.8604e-07 0
2.8642e-07 0
2.8681e-07 0
2.8719e-07 0
2.8757e-07 0
2.8796e-07 0
2.8834e-07 0
2.8873e-07 0
2.8911e-07 0
2.895e-07 0
2.8989e-07 0
2.9027e-07 0
2.9066e-07 0
2.9105e-07 0
2.9144e-07 0
2.9183e-07 0
2.9222e-07 0
2.9261e-07 0
2.93e-07 0
2.9339e-07 0
2.9378e-07 0
2.9417e-07 0
2.9456e-07 0
2.9496e-07 0
2.9535e-07 0
2.9575e-07 0
2.9614e-07 0
2.9654e-07 0
2.9693e-07 0
2.9733e-07 0
2.9773e-07 0
2.9812e-07 0
2.9852e-07 0
2.9892e-07 0
2.9932e-07 0
2.9972e-07 0
3.0012e-07 0
3.0052e-07 0
3.0092e-07 0
3.0132e-07 0
3.0173e-07 0
3.0213e-07 0
3.0253e-07 0
3.0294e-07 0
3.0334e-07 0
3.0375e-07 0
3.0415e-07 0
3.0456e-07 0
3.0496e-07 0
3.0537e-07 0
3.0578e-07 0
3.0619e-07 0
3.066e-07 0
3.0701e-07 0
3.0742e-07 0
3.0783e-07 0
3.0824e-07 0
3.0865e-07 0
3.0906e-07 0
3.0947e-07 0
3.0989e-07 0
3.103e-07 0
3.1071e-07 0
3.1113e-07 0
3.1155e-07 0
3.1196e-07 0
3.1238e-07 0
3.1279e-07 0
3.1321e-07 0
3.1363e-07 0
3.1405e-07 0
3.1447e-07 0
3.1489e-07 0
3.1531e-07 0
3.1573e-07 0
3.1615e-07 0
3.1657e-07 0
3.17e-07 0
3.1742e-07 0
3.1784e-07 0
3.1827e-07 0
3.1869e-07 0
3.1912e-07 0
3.1955e-07 0
3.1997e-07 0
3.204e-07 0
3.2083e-07 0
3.2126e-07 0
3.2168e-07 0
3.2211e-07 0
3.2254e-07 0
3.2297e-07 0
3.2341e-07 0
3.2384e-07 0
3.2427e-07 0
3.247e-07 0
3.2514e-07 0
3.2557e-07 0
3.2601e-07 0
3.2644e-07 0
3.2688e-07 0
3.2731e-07 0
3.2775e-07 0
3.2819e-07 0
3.2863e-07 0
3.2907e-07 0
3.295e-07 0
3.2994e-07 0
3.3039e-07 0
3.3083e-07 0
3.3127e-07 0
3.3171e-07 0
3.3215e-07 0
3.326e-07 0
3.3304e-07 0
3.3349e-07 0
3.3393e-07 0
3.3438e-07 0
3.3482e-07 0
3.3527e-07 0
3.3572e-07 0
3.3617e-07 0
3.3662e-07 0
3.3706e-07 0
3.3752e-07 0
3.3797e-07 0
3.3842e-07 0
3.3887e-07 0
3.3932e-07 0
3.3977e-07 0
3.4023e-07 0
3.4068e-07 0
3.4114e-07 0
3.4159e-07 0
3.4205e-07 0
3.4251e-07 0
3.4296e-07 0
3.4342e-07 0
3.4388e-07 0
3.4434e-07 0
3.448e-07 0
3.4526e-07 0
3.4572e-07 0
3.4618e-07 0
3.4664e-07 0
3.4711e-07 0
3.4757e-07 0
3.4803e-07 0
3.485e-07 0
3.4896e-07 0
3.4943e-07 0
3.499e-07 0
3.5036e-07 0
3.5083e-07 0
3.513e-07 0
3.5177e-07 0
3.5224e-07 0
3.5271e-07 0
3.5318e-07 0
3.5365e-07 0
3.5412e-07 0
3.546e-07 0
3.5507e-07 0
3.5555e-07 0
3.5602e-07 0
3.565e-07 0
3.5697e-07 0
3.5745e-07 0
3.5793e-07 0
3.584e-07 0
3.5888e-07 0
3.5936e-07 0
3.5984e-07 0
3.6032e-07 0
3.608e-07 0
3.6128e-07 0
3.6177e-07 0
3.6225e-07 0
3.6273e-07 0
3.6322e-07 0
3.637e-07 0
3.6419e-07 0
3.6468e-07 0
3.6516e-07 0
3.6565e-07 0
3.6614e-07 0
3.6663e-07 0
3.6712e-07 0
3.6761e-07 0
3.681e-07 0
3.6859e-07 0
3.6908e-07 0
3.6957e-07 0
3.7007e-07 0
3.7056e-07 0
3.7106e-07 0
3.7155e-07 0
3.7205e-07 0
3.7255e-07 0
3.7304e-07 0
3.7354e-07 0
3.7404e-07 0
3.7454e-07 0
3.7504e-07 0
3.7554e-07 0
3.7604e-07 0
3.7654e-07 0
3.7705e-07 0
3.7755e-07 0
3.7805e-07 0
3.7856e-07 0
3.7906e-07 0
3.7957e-07 0
3.8008e-07 0
3.8058e-07 0
3.8109e-07 0
3.816e-07 0
3.8211e-07 0
3.8262e-07 0
3.8313e-07 0
3.8364e-07 0
3.8416e-07 0
3.8467e-07 0
3.8518e-07 0
3.857e-07 0
3.8621e-07 0
3.8673e-07 0
3.8724e-07 0
3.8776e-07 0
3.8828e-07 0
3.888e-07 0
3.8932e-07 0
3.8984e-07 0
3.9036e-07 0
3.9088e-07 0
3.914e-07 0
3.9192e-07 0
3.9245e-07 0
3.9297e-07 0
3.935e-07 0
3.9402e-07 0
3.9455e-07 0
3.9507e-07 0
3.956e-07 0
3.9613e-07 0
3.9666e-07 0
3.9719e-07 0
3.9772e-07 0
3.9825e-07 0
3.9878e-07 0
3.9931e-07 0
3.9985e-07 0
4.0038e-07 0
4.0092e-07 0
4.0145e-07 0
4.0199e-07 0
4.0252e-07 0
4.0306e-07 0
4.036e-07 0
4.0414e-07 0
4.0468e-07 0
4.0522e-07 0
4.0576e-07 0
4.063e-07 0
4.0684e-07 0
4.0739e-07 0
4.0793e-07 0
4.0848e-07 0
4.0902e-07 0
4.0957e-07 0
4.1011e-07 0
4.1066e-07 0
4.1121e-07 0
4.1176e-07 0
4.1231e-07 0
4.1286e-07 0
4.1341e-07 0
4.1396e-07 0
4.1452e-07 0
4.1507e-07 0
4.1562e-07 0
4.1618e-07 0
4.1673e-07 0
4.1729e-07 0
4.1785e-07 0
4.1841e-07 0
4.1897e-07 0
4.1952e-07 0
4.2008e-07 0
4.2065e-07 0
4.2121e-07 0
4.2177e-07 0
4.2233e-07 0
4.229e-07 0
4.2346e-07 0
4.2403e-07 0
4.2459e-07 0
4.2516e-07 0
4.2573e-07 0
4.263e-07 0
4.2687e-07 0
4.2744e-07 0
4.2801e-07 0
4.2858e-07 0
4.2915e-07 0
4.2972e-07 0
4.303e-07 0
4.3087e-07 0
4.3145e-07 0
4.3202e-07 0
4.326e-07 0
4.3318e-07 0
4.3376e-07 0
4.3434e-07 0
4.3492e-07 0
4.355e-07 0
4.3608e-07 0
4.3666e-07 0
4.3724e-07 0
4.3783e-07 0
4.3841e-07 0
4.39e-07 0
4.3958e-07 0
4.4017e-07 0
4.4076e-07 0
4.4135e-07 0
4.4194e-07 0
4.4253e-07 0
4.4312e-07 0
4.4371e-07 0
4.443e-07 0
4.4489e-07 0
4.4549e-07 0
4.4608e-07 0
4.4668e-07 0
4.4728e-07 0
4.4787e-07 0
4.4847e-07 0
4.4907e-07 0
4.4967e-07 0
4.5027e-07 0
4.5087e-07 0
4.5147e-07 0
4.5208e-07 0
4.5268e-07 0
4.5328e-07 0
4.5389e-07 0
4.545e-07 0
4.551e-07 0
4.5571e-07 0
4.5632e-07 0
4.5693e-07 0
4.5754e-07 0
4.5815e-07 0
4.5876e-07 0
4.5937e-07 0
4.5999e-07 0
4.606e-07 0
4.6122e-07 0
4.6183e-07 0
4.6245e-07 0
4.6307e-07 0
4.6368e-07 0
4.643e-07 0
4.6492e-07 0
4.6554e-07 0
4.6617e-07 0
4.6679e-07 0
4.6741e-07 0
4.6804e-07 0
4.6866e-07 0
4.6929e-07 0
4.6991e-07 0
4.7054e-07 0
4.7117e-07 0
4.718e-07 0
4.7243e-07 0
4.7306e-07 0
4.7369e-07 0
4.7432e-07 0
4.7496e-07 0
4.7559e-07 0
4.7623e-07 0
4.7686e-07 0
4.775e-07 0
4.7814e-07 0
4.7878e-07 0
4.7941e-07 0
4.8005e-07 0
4.807e-07 0
4.8134e-07 0
4.8198e-07 0
4.8262e-07 0
4.8327e-07 0
4.8391e-07 0
4.8456e-07 0
4.8521e-07 0
4.8585e-07 0
4.865e-07 0
4.8715e-07 0
4.878e-07 0
4.8846e-07 0
4.8911e-07 0
4.8976e-07 0
4.9041e-07 0
4.9107e-07 0
4.9173e-07 0
4.9238e-07 0
4.9304e-07 0
4.937e-07 0
4.9436e-07 0
4.9502e-07 0
4.9568e-07 0
4.9634e-07 1.9597e-41
4.97e-07 8.3561e-41
4.9767e-07 1.4446e-39
4.9833e-07 3.2089e-39
4.99e-07 4.7369e-39
4.9966e-07 7.1884e-39
5.0033e-07 1.2037e-38
5.01e-07 2.6271e-38
5.0167e-07 5.3403e-36
5.0234e-07 1.5054e-34
5.0301e-07 1.68e-34
5.0368e-07 1.0203e-35
5.0435e-07 3.4469e-38
5.0503e-07 1.3153e-38
5.057e-07 7.4121e-39
5.0637e-07 4.8539e-39
5.0705e-07 3.3542e-39
5.0773e-07 1.7078e-39
5.0841e-07 9.8661e-41
5.0909e-07 2.0441e-41
5.0976e-07 0
5.1045e-07 2.2061e-41
5.1113e-07 5.0412e-40
5.1181e-07 2.6995e-39
5.1249e-07 4.1789e-39
5.1318e-07 6.1617e-39
5.1386e-07 9.9901e-39
5.1455e-07 1.8252e-38
5.1524e-07 8.8328e-38
5.1592e-07 3.2083e-35
5.1661e-07 2.6489e-34
5.173e-07 1.2534e-34
5.1799e-07 1.0508e-36
5.1869e-07 2.8151e-38
5.1938e-07 1.6875e-38
5.2007e-07 1.4425e-38
5.2077e-07 1.7573e-38
5.2146e-07 8.0443e-38
5.2216e-07 2.4768e-35
5.2285e-07 1.6234e-34
5.2355e-07 7.2426e-35
5.2425e-07 3.4067e-36
5.2495e-07 1.8056e-38
5.2565e-07 9.1725e-39
5.2635e-07 5.5017e-39
5.2706e-07 3.7539e-39
5.2776e-07 3.0126e-39
5.2847e-07 3.2499e-39
5.2917e-07 3.1461e-39
5.2988e-07 4.1701e-39
5.3059e-07 6.5802e-39
5.3129e-07 1.1576e-38
5.32e-07 2.8833e-38
5.3271e-07 1.3991e-35
5.3343e-07 1.5149e-34
5.3414e-07 9.4705e-35
5.3485e-07 5.6861e-36
5.3557e-07 1.9988e-38
5.3628e-07 1.0961e-38
5.37e-07 9.3357e-39
5.3771e-07 9.4326e-39
5.3843e-07 1.1159e-38
5.3915e-07 1.4851e-38
5.3987e-07 2.4467e-38
5.4059e-07 1.5674e-37
5.4131e-07 7.0628e-35
5.4204e-07 2.5679e-34
5.4276e-07 1.2383e-34
5.4349e-07 6.254e-35
5.4421e-07 3.9682e-35
5.4494e-07 7.788e-37
5.4567e-07 1.0883e-35
5.4639e-07 1.3396e-34
5.4712e-07 6.5621e-35
5.4785e-07 1.6857e-35
5.4859e-07 9.8987e-37
5.4932e-07 7.1044e-35
5.5005e-07 2.737e-34
5.5079e-07 1.3006e-34
5.5152e-07 1.1952e-35
5.5226e-07 3.8363e-38
5.53e-07 2.0713e-38
5.5373e-07 1.47e-38
5.5447e-07 1.3693e-38
5.5521e-07 1.6693e-38
5.5596e-07 3.4644e-38
5.567e-07 2.5635e-35
5.5744e-07 1.5339e-34
5.5819e-07 6.7385e-35
5.5893e-07 4.6221e-36
5.5968e-07 2.3782e-38
5.6042e-07 1.5291e-38
5.6117e-07 1.4431e-38
5.6192e-07 1.8048e-38
5.6267e-07 3.1235e-38
5.6342e-07 4.6608e-36
5.6418e-07 1.1575e-34
5.6493e-07 2.0882e-34
5.6568e-07 8.5495e-35
5.6644e-07 2.4949e-35
5.672e-07 6.204e-38
5.6795e-07 1.5387e-38
5.6871e-07 9.097e-39
5.6947e-07 6.1239e-39
5.7023e-07 4.5109e-39
5.7099e-07 2.6024e-39
5.7176e-07 1.4642e-39
5.7252e-07 2.7103e-39
5.7328e-07 4.0017e-39
5.7405e-07 5.4321e-39
5.7482e-07 7.8012e-39
5.7558e-07 1.3411e-38
5.7635e-07 2.9159e-38
5.7712e-07 1.8244e-36
5.7789e-07 5.5658e-35
5.7866e-07 2.8991e-34
5.7944e-07 7.1647e-35
5.8021e-07 1.0344e-36
5.8098e-07 1.5581e-37
5.8176e-07 3.4329e-35
5.8254e-07 7.0634e-34
5.8331e-07 4.4841e-34
5.8409e-07 2.1998e-34
5.8487e-07 8.9884e-35
5.8565e-07 8.153e-35
5.8644e-07 2.1279e-34
5.8722e-07 1.3528e-34
5.88e-07 3.5451e-34
5.8879e-07 1.7782e-34
5.8958e-07 1.0698e-35
5.9036e-07 6.0007e-38
5.9115e-07 3.2708e-38
5.9194e-07 2.4149e-38
5.9273e-07 2.0044e-38
5.9352e-07 2.0087e-38
5.9431e-07 2.7279e-38
5.9511e-07 5.5764e-38
5.959e-07 1.4602e-35
5.967e-07 2.1309e-34
5.975e-07 2.9674e-34
5.9829e-07 4.6936e-35
5.9909e-07 3.3378e-35
5.9989e-07 2.0865e-35
6.0069e-07 2.5972e-37
6.015e-07 6.3519e-38
6.023e-07 1.0331e-37
6.031e-07 2.3523e-37
6.0391e-07 1.4731e-34
6.0471e-07 7.1669e-34
6.0552e-07 6.8374e-34
6.0633e-07 3.5813e-34
6.0714e-07 2.649e-35
6.0795e-07 1.1456e-36
6.0876e-07 4.2109e-34
6.0958e-07 1.0589e-33
6.1039e-07 5.529e-34
6.112e-07 2.3528e-34
6.1202e-07 6.7508e-35
6.1284e-07 1.5238e-34
6.1366e-07 9.5913e-35
6.1448e-07 1.4159e-34
6.153e-07 1.0963e-34
6.1612e-07 7.42e-35
6.1694e-07 4.3932e-36
6.1776e-07 4.6492e-38
6.1859e-07 4.6227e-38
6.1942e-07 3.567e-36
6.2024e-07 1.0504e-34
6.2107e-07 1.8055e-34
6.219e-07 2.0717e-35
6.2273e-07 1.3304e-37
6.2356e-07 7.9139e-38
6.2439e-07 1.0474e-37
6.2523e-07 1.6653e-37
6.2606e-07 3.4495e-37
6.269e-07 6.3716e-35
6.2774e-07 1.1844e-33
6.2857e-07 1.2405e-33
6.2941e-07 5.5372e-34
6.3025e-07 1.9762e-34
6.311e-07 2.5647e-34
6.3194e-07 3.1978e-34
6.3278e-07 1.2665e-34
6.3363e-07 1.0118e-35
6.3447e-07 8.1614e-38
6.3532e-07 5.3957e-38
6.3617e-07 3.3867e-38
6.3702e-07 2.2385e-38
6.3787e-07 1.8945e-38
6.3872e-07 2.167e-38
6.3957e-07 3.1949e-38
6.4043e-07 7.6042e-38
6.4128e-07 1.8963e-35
6.4214e-07 2.6454e-34
6.43e-07 3.7648e-34
6.4386e-07 5.7864e-35
6.4472e-07 2.4746e-37
6.4558e-07 1.1802e-37
6.4644e-07 1.47e-37
6.473e-07 2.6187e-37
6.4817e-07 5.5805e-37
6.4903e-07 5.8279e-35
6.499e-07 1.9421e-33
6.5077e-07 2.0199e-33
6.5164e-07 1.5016e-33
6.5251e-07 6.6604e-34
6.5338e-07 2.2423e-34
6.5425e-07 2.1371e-35
6.5512e-07 2.3133e-33
6.56e-07 1.2422e-32
6.5687e-07 8.6428e-33
6.5775e-07 4.0568e-33
6.5863e-07 1.2572e-33
6.5951e-07 4.2893e-34
6.6039e-07 2.1624e-33
6.6127e-07 4.811e-33
6.6215e-07 3.0523e-33
6.6304e-07 1.3695e-33
6.6392e-07 5.958e-34
6.6481e-07 4.1542e-34
6.657e-07 2.1249e-34
6.6659e-07 8.6165e-35
6.6748e-07 1.2256e-34
6.6837e-07 2.3109e-34
6.6926e-07 1.6104e-34
6.7015e-07 2.551e-34
6.7105e-07 1.0093e-34
6.7195e-07 3.757e-36
6.7284e-07 5.7808e-38
6.7374e-07 3.1736e-38
6.7464e-07 2.1532e-38
6.7554e-07 1.6412e-38
6.7644e-07 1.4383e-38
6.7735e-07 1.3208e-38
6.7825e-07 1.4421e-38
6.7916e-07 1.9067e-38
6.8006e-07 3.3104e-38
6.8097e-07 4.2394e-36
6.8188e-07 8.0101e-35
6.8279e-07 2.8162e-34
6.837e-07 9.4872e-35
6.8462e-07 1.5807e-36
6.8553e-07 3.775e-38
6.8645e-07 2.0182e-38
6.8736e-07 1.5244e-38
6.8828e-07 1.2181e-38
6.892e-07 1.2972e-38
6.9012e-07 1.4882e-38
6.9104e-07 1.7103e-38
6.9196e-07 2.7778e-38
6.9289e-07 5.2635e-38
6.9381e-07 1.8202e-35
6.9474e-07 1.4075e-34
6.9567e-07 5.5626e-34
6.966e-07 2.1137e-34
6.9753e-07 4.4895e-36
6.9846e-07 7.6203e-38
6.9939e-07 4.2631e-38
7.0032e-07 6.1669e-38
7.0126e-07 1.5999e-37
7.022e-07 2.6017e-37
7.0313e-07 3.4981e-37
7.0407e-07 4.708e-37
7.0501e-07 6.6095e-37
7.0595e-07 2.4043e-36
7.069e-07 1.6227e-34
7.0784e-07 6.1281e-34
7.0879e-07 2.2328e-34
7.0973e-07 2.3561e-33
7.1068e-07 1.8992e-32
7.1163e-07 1.3247e-32
7.1258e-07 7.7755e-33
7.1353e-07 2.7377e-33
7.1448e-07 8.4058e-34
7.1544e-07 2.2248e-32
7.1639e-07 5.624e-32
7.1735e-07 2.7982e-32
7.1831e-07 2.0363e-32
7.1927e-07 8.8451e-33
7.2023e-07 4.5507e-33
7.2119e-07 2.4431e-33
7.2215e-07 5.2587e-33
7.2312e-07 1.2476e-32
7.2408e-07 7.3477e-33
7.2505e-07 3.2804e-33
7.2602e-07 1.1293e-33
7.2699e-07 7.6216e-34
7.2796e-07 1.7577e-33
7.2893e-07 1.2014e-33
7.299e-07 9.853e-34
7.3088e-07 2.546e-34
7.3185e-07 5.4712e-36
7.3283e-07 1.6375e-34
7.3381e-07 4.4287e-34
7.3479e-07 3.023e-34
7.3577e-07 1.6875e-34
7.3675e-07 3.6134e-35
7.3774e-07 2.9476e-37
7.3872e-07 4.3774e-35
7.3971e-07 2.7647e-34
7.407e-07 1.3599e-34
7.4169e-07 9.6938e-36
7.4268e-07 4.4343e-38
7.4367e-07 2.2931e-38
7.4466e-07 1.3692e-38
7.4565e-07 8.5523e-39
7.4665e-07 5.7527e-39
7.4765e-07 6.3436e-39
7.4865e-07 6.9786e-39
7.4965e-07 7.419e-39
7.5065e-07 7.8834e-39
7.5165e-07 8.9366e-39
7.5265e-07 1.1968e-38
7.5366e-07 1.7176e-38
7.5466e-07 2.7823e-38
7.5567e-07 5.6313e-38
7.5668e-07 5.2613e-36
7.5769e-07 1.3125e-34
7.587e-07 3.4825e-34
7.5972e-07 1.7271e-34
7.6073e-07 6.6103e-36
7.6175e-07 4.2593e-38
7.6276e-07 2.7887e-38
7.6378e-07 2.0125e-38
7.648e-07 1.6638e-38
7.6582e-07 1.6201e-38
7.6685e-07 1.7101e-38
7.6787e-07 2.0664e-38
7.689e-07 3.2084e-38
7.6992e-07 4.6915e-37
7.7095e-07 2.126e-36
7.7198e-07 3.7443e-35
7.7301e-07 3.8893e-34
7.7404e-07 3.6438e-34
7.7508e-07 7.0139e-35
7.7611e-07 1.4479e-35
7.7715e-07 1.7622e-35
7.7819e-07 2.714e-35
7.7922e-07 4.677e-35
7.8026e-07 1.1001e-34
7.8131e-07 4.3005e-32
7.8235e-07 3.3319e-31
7.8339e-07 2.0613e-31
7.8444e-07 1.6266e-31
7.8549e-07 7.9176e-32
7.8654e-07 4.0836e-32
7.8759e-07 4.5049e-32
7.8864e-07 2.0767e-31
7.8969e-07 1.1645e-31
7.9075e-07 8.4373e-32
7.918e-07 3.6113e-32
7.9286e-07 1.5928e-32
7.9392e-07 2.0194e-32
7.9498e-07 1.8228e-32
7.9604e-07 1.2476e-32
7.971e-07 6.2503e-33
7.9817e-07 3.7071e-33
7.9923e-07 2.3666e-33
8.003e-07 1.6262e-33
8.0137e-07 1.3766e-33
8.0244e-07 1.0742e-32
8.0351e-07 5.0445e-33
8.0458e-07 4.5625e-33
8.0566e-07 2.6131e-33
8.0673e-07 9.1864e-34
8.0781e-07 5.8786e-34
8.0889e-07 1.1956e-33
8.0997e-07 2.8642e-33
8.1105e-07 1.5975e-33
8.1213e-07 2.4463e-33
8.1322e-07 8.2589e-34
8.1431e-07 1.5245e-34
8.1539e-07 8.6468e-37
8.1648e-07 6.6981e-37
8.1757e-07 1.0275e-36
8.1866e-07 1.0049e-34
8.1976e-07 4.1575e-33
8.2085e-07 4.6587e-33
8.2195e-07 3.4766e-33
8.2304e-07 2.5254e-33
8.2414e-07 7.9194e-34
8.2524e-07 2.8632e-34
8.2635e-07 4.4851e-34
8.2745e-07 1.3032e-34
8.2855e-07 7.8687e-33
8.2966e-07 1.5157e-32
8.3077e-07 9.3445e-33
8.3188e-07 9.219e-33
8.3299e-07 3.4562e-33
8.341e-07 1.8443e-33
8.3522e-07 2.4196e-34
8.3633e-07 2.2828e-36
8.3745e-07 1.5736e-33
8.3857e-07 5.5337e-33
8.3969e-07 2.9899e-33
8.4081e-07 2.7714e-33
8.4193e-07 1.3661e-33
8.4305e-07 3.9488e-34
8.4418e-07 2.1501e-35
8.4531e-07 3.9511e-37
8.4644e-07 2.548e-37
8.4757e-07 2.026e-37
8.487e-07 2.133e-37
8.4983e-07 1.1096e-36
8.5097e-07 2.431e-34
8.521e-07 8.8299e-34
8.5324e-07 1.1171e-33
8.5438e-07 2.7238e-34
8.5552e-07 2.8396e-35
8.5666e-07 2.4563e-35
8.5781e-07 3.2156e-35
8.5895e-07 4.0475e-35
8.601e-07 4.7342e-35
8.6125e-07 4.4734e-35
8.624e-07 7.4375e-35
8.6355e-07 1.9108e-34
8.647e-07 2.0774e-34
8.6586e-07 2.623e-34
8.6701e-07 4.9806e-34
8.6817e-07 2.3292e-31
8.6933e-07 1.1089e-30
8.7049e-07 6.6996e-31
8.7165e-07 5.19e-31
8.7282e-07 2.8451e-31
8.7398e-07 2.4274e-31
8.7515e-07 1.1555e-31
8.7632e-07 8.0578e-32
8.7749e-07 4.9025e-32
8.7866e-07 3.1211e-32
8.7983e-07 1.6411e-32
8.8101e-07 9.4346e-33
8.8218e-07 3.9449e-33
8.8336e-07 1.6978e-33
8.8454e-07 1.1712e-33
8.8572e-07 1.9629e-33
8.8691e-07 1.0973e-33
8.8809e-07 3.9456e-34
8.8928e-07 1.2993e-34
8.9046e-07 1.0464e-35
8.9165e-07 1.8835e-34
8.9284e-07 1.9985e-32
8.9404e-07 3.6771e-32
8.9523e-07 2.0173e-32
8.9642e-07 1.5034e-32
8.9762e-07 8.4082e-33
8.9882e-07 8.7477e-33
9.0002e-07 3.6172e-33
9.0122e-07 2.8056e-33
9.0243e-07 8.7422e-34
9.0363e-07 1.0201e-34
9.0484e-07 9.201e-36
9.0605e-07 1.6907e-35
9.0726e-07 1.6475e-33
9.0847e-07 4.6459e-32
9.0968e-07 7.5945e-32
9.1089e-07 5.3069e-32
9.1211e-07 3.7613e-32
9.1333e-07 1.654e-32
9.1455e-07 5.116e-33
9.1577e-07 1.2553e-33
9.1699e-07 1.4642e-33
9.1822e-07 7.1289e-34
9.1944e-07 4.6439e-33
9.2067e-07 2.9399e-31
9.219e-07 4.7319e-31
9.2313e-07 3.3271e-31
9.2436e-07 3.1122e-31
9.256e-07 1.1718e-31
9.2683e-07 3.1076e-32
9.2807e-07 1.4227e-32
9.2931e-07 6.4622e-33
9.3055e-07 1.7899e-31
9.3179e-07 4.4947e-31
9.3304e-07 3.0163e-31
9.3429e-07 2.3826e-31
9.3553e-07 2.1295e-31
9.3678e-07 9.6135e-32
9.3803e-07 3.0252e-32
9.3929e-07 1.791e-32
9.4054e-07 1.7436e-32
9.418e-07 8.8605e-33
9.4305e-07 5.0305e-33
9.4431e-07 2.7146e-32
9.4557e-07 5.8343e-32
9.4684e-07 1.861e-32
9.481e-07 2.3177e-32
9.4937e-07 1.805e-32
9.5e-07 8.7605e-33