File: material/gas/smooth_input/co2_uv_vis_T0_P0.txt
2.8e-07 -0
2.8047e-07 -0
2.8094e-07 -0
2.8141e-07 -0
2.8188e-07 -0
2.8235e-07 -0
2.8282e-07 -0
2.8329e-07 -0
2.8377e-07 -0
2.8424e-07 -0
2.8472e-07 -0
2.8519e-07 -0
2.8567e-07 -0
2.8615e-07 -0
2.8663e-07 -0
2.8711e-07 -0
2.8759e-07 -0
2.8807e-07 -0
2.8855e-07 -0
2.8903e-07 -0
2.8951e-07 -0
2.9e-07 -0
2.9048e-07 -0
2.9097e-07 -0
2.9145e-07 -0
2.9194e-07 -0
2.9243e-07 -0
2.9292e-07 -0
2.9341e-07 -0
2.939e-07 -0
2.9439e-07 -0
2.9488e-07 -0
2.9538e-07 -0
2.9587e-07 -0
2.9637e-07 -0
2.9686e-07 -0
2.9736e-07 -0
2.9785e-07 -0
2.9835e-07 -0
2.9885e-07 -0
2.9935e-07 -0
2.9985e-07 -0
3.0035e-07 -0
3.0085e-07 -0
3.0136e-07 -0
3.0186e-07 -0
3.0237e-07 -0
3.0287e-07 -0
3.0338e-07 -0
3.0389e-07 -0
3.0439e-07 -0
3.049e-07 -0
3.0541e-07 -0
3.0592e-07 -0
3.0643e-07 -0
3.0695e-07 -0
3.0746e-07 -0
3.0797e-07 -0
3.0849e-07 -0
3.0901e-07 -0
3.0952e-07 -0
3.1004e-07 -0
3.1056e-07 -0
3.1108e-07 -0
3.116e-07 -0
3.1212e-07 -0
3.1264e-07 -0
3.1316e-07 -0
3.1369e-07 -0
3.1421e-07 -0
3.1474e-07 -0
3.1526e-07 -0
3.1579e-07 -0
3.1632e-07 -0
3.1685e-07 -0
3.1738e-07 -0
3.1791e-07 -0
3.1844e-07 -0
3.1897e-07 -0
3.195e-07 -0
3.2004e-07 -0
3.2057e-07 -0
3.2111e-07 -0
3.2165e-07 -0
3.2218e-07 -0
3.2272e-07 -0
3.2326e-07 -0
3.238e-07 -0
3.2435e-07 -0
3.2489e-07 -0
3.2543e-07 -0
3.2597e-07 -0
3.2652e-07 -0
3.2707e-07 -0
3.2761e-07 -0
3.2816e-07 -0
3.2871e-07 -0
3.2926e-07 -0
3.2981e-07 -0
3.3036e-07 -0
3.3091e-07 -0
3.3147e-07 -0
3.3202e-07 -0
3.3258e-07 -0
3.3313e-07 -0
3.3369e-07 -0
3.3425e-07 -0
3.3481e-07 -0
3.3537e-07 -0
3.3593e-07 -0
3.3649e-07 -0
3.3705e-07 -0
3.3761e-07 -0
3.3818e-07 -0
3.3874e-07 -0
3.3931e-07 -0
3.3988e-07 -0
3.4045e-07 -0
3.4102e-07 -0
3.4159e-07 -0
3.4216e-07 -0
3.4273e-07 -0
3.433e-07 -0
3.4388e-07 -0
3.4445e-07 -0
3.4503e-07 -0
3.456e-07 -0
3.4618e-07 -0
3.4676e-07 -0
3.4734e-07 -0
3.4792e-07 -0
3.485e-07 -0
3.4909e-07 -0
3.4967e-07 -0
3.5025e-07 -0
3.5084e-07 -0
3.5143e-07 -0
3.5201e-07 -0
3.526e-07 -0
3.5319e-07 -0
3.5378e-07 -0
3.5437e-07 -0
3.5497e-07 -0
3.5556e-07 -0
3.5615e-07 -0
3.5675e-07 -0
3.5735e-07 -0
3.5794e-07 -0
3.5854e-07 -0
3.5914e-07 -0
3.5974e-07 -0
3.6034e-07 -0
3.6095e-07 -0
3.6155e-07 -0
3.6215e-07 -0
3.6276e-07 -0
3.6337e-07 -0
3.6397e-07 -0
3.6458e-07 -0
3.6519e-07 -0
3.658e-07 -0
3.6642e-07 -0
3.6703e-07 -0
3.6764e-07 -0
3.6826e-07 -0
3.6887e-07 -0
3.6949e-07 -0
3.7011e-07 -0
3.7073e-07 -0
3.7135e-07 -0
3.7197e-07 -0
3.7259e-07 -0
3.7321e-07 -0
3.7384e-07 -0
3.7446e-07 -0
3.7509e-07 -0
3.7571e-07 -0
3.7634e-07 -0
3.7697e-07 -0
3.776e-07 -0
3.7823e-07 -0
3.7887e-07 -0
3.795e-07 -0
3.8013e-07 -0
3.8077e-07 -0
3.8141e-07 -0
3.8204e-07 -0
3.8268e-07 -0
3.8332e-07 -0
3.8396e-07 -0
3.846e-07 -0
3.8525e-07 -0
3.8589e-07 -0
3.8654e-07 -0
3.8718e-07 -0
3.8783e-07 -0
3.8848e-07 -0
3.8913e-07 -0
3.8978e-07 -0
3.9043e-07 -0
3.9108e-07 -0
3.9174e-07 -0
3.9239e-07 -0
3.9305e-07 -0
3.9371e-07 -0
3.9436e-07 -0
3.9502e-07 -0
3.9568e-07 -0
3.9635e-07 -0
3.9701e-07 -0
3.9767e-07 -0
3.9834e-07 -0
3.99e-07 -0
3.9967e-07 -0
4.0034e-07 -0
4.0101e-07 -0
4.0168e-07 -0
4.0235e-07 -0
4.0302e-07 -0
4.037e-07 -0
4.0437e-07 -0
4.0505e-07 -0
4.0573e-07 -0
4.064e-07 -0
4.0708e-07 -0
4.0776e-07 -0
4.0845e-07 -0
4.0913e-07 -0
4.0981e-07 -0
4.105e-07 -0
4.1118e-07 -0
4.1187e-07 -0
4.1256e-07 -0
4.1325e-07 -0
4.1394e-07 -0
4.1463e-07 -0
4.1533e-07 -0
4.1602e-07 -0
4.1672e-07 -0
4.1741e-07 -0
4.1811e-07 -0
4.1881e-07 -0
4.1951e-07 -0
4.2021e-07 -0
4.2092e-07 -0
4.2162e-07 -0
4.2232e-07 -0
4.2303e-07 -0
4.2374e-07 -0
4.2445e-07 -0
4.2516e-07 -0
4.2587e-07 -0
4.2658e-07 -0
4.2729e-07 -0
4.2801e-07 -0
4.2872e-07 -0
4.2944e-07 -0
4.3016e-07 -0
4.3088e-07 -0
4.316e-07 -0
4.3232e-07 -0
4.3304e-07 -0
4.3377e-07 -0
4.3449e-07 -0
4.3522e-07 -0
4.3595e-07 -0
4.3667e-07 -0
4.374e-07 -0
4.3814e-07 -0
4.3887e-07 -0
4.396e-07 -0
4.4034e-07 -0
4.4107e-07 -0
4.4181e-07 -0
4.4255e-07 -0
4.4329e-07 -0
4.4403e-07 -0
4.4477e-07 -0
4.4552e-07 -0
4.4626e-07 -0
4.4701e-07 -0
4.4776e-07 -0
4.485e-07 -0
4.4925e-07 -0
4.5001e-07 -0
4.5076e-07 -0
4.5151e-07 -0
4.5227e-07 -0
4.5302e-07 -0
4.5378e-07 -0
4.5454e-07 -0
4.553e-07 -0
4.5606e-07 -0
4.5682e-07 -0
4.5759e-07 -0
4.5835e-07 -0
4.5912e-07 -0
4.5989e-07 -0
4.6065e-07 -0
4.6142e-07 -0
4.622e-07 -0
4.6297e-07 -0
4.6374e-07 -0
4.6452e-07 -0
4.653e-07 -0
4.6607e-07 -0
4.6685e-07 -0
4.6763e-07 -0
4.6842e-07 -0
4.692e-07 -0
4.6998e-07 -0
4.7077e-07 -0
4.7156e-07 -0
4.7234e-07 -0
4.7313e-07 -0
4.7393e-07 -0
4.7472e-07 -0
4.7551e-07 -0
4.7631e-07 -0
4.771e-07 -0
4.779e-07 -0
4.787e-07 -0
4.795e-07 -0
4.803e-07 -0
4.8111e-07 -0
4.8191e-07 -0
4.8272e-07 -0
4.8352e-07 -0
4.8433e-07 -0
4.8514e-07 -0
4.8595e-07 -0
4.8676e-07 -0
4.8758e-07 -0
4.8839e-07 -0
4.8921e-07 -0
4.9003e-07 -0
4.9085e-07 -0
4.9167e-07 -0
4.9249e-07 -0
4.9331e-07 -0
4.9414e-07 -0
4.9496e-07 -0
4.9579e-07 -0
4.9662e-07 2.9359e-40
4.9745e-07 1.2556e-39
4.9828e-07 3.3076e-39
4.9912e-07 6.0968e-39
4.9995e-07 1.1825e-38
5.0079e-07 4.1244e-37
5.0162e-07 6.5659e-35
5.0246e-07 1.4487e-34
5.033e-07 1.2406e-34
5.0415e-07 1.2197e-35
5.0499e-07 2.1935e-38
5.0583e-07 8.6423e-39
5.0668e-07 4.7194e-39
5.0753e-07 2.4612e-39
5.0837e-07 8.1051e-40
5.0922e-07 4.685e-42
5.1008e-07 1.3118e-40
5.1093e-07 9.8385e-40
5.1178e-07 2.797e-39
5.1264e-07 5.2175e-39
5.135e-07 9.7245e-39
5.1435e-07 2.308e-38
5.1521e-07 4.5315e-36
5.1608e-07 1.1673e-34
5.1694e-07 9.0453e-35
5.178e-07 2.4823e-35
5.1867e-07 4.3263e-36
5.1954e-07 2.0922e-38
5.204e-07 2.0103e-38
5.2127e-07 3.9461e-36
5.2215e-07 4.5179e-35
5.2302e-07 8.6918e-35
5.2389e-07 7.3073e-35
5.2477e-07 2.1802e-36
5.2565e-07 1.2785e-38
5.2653e-07 6.1405e-39
5.2741e-07 4.1712e-39
5.2829e-07 3.5559e-39
5.2917e-07 3.8386e-39
5.3006e-07 5.6876e-39
5.3094e-07 1.1876e-38
5.3183e-07 1.2353e-36
5.3272e-07 3.8074e-35
5.3361e-07 9.4867e-35
5.345e-07 4.6287e-35
5.354e-07 4.4906e-36
5.3629e-07 1.5773e-38
5.3719e-07 1.1172e-38
5.3809e-07 1.2186e-38
5.3899e-07 1.7523e-38
5.3989e-07 9.0532e-38
5.4079e-07 6.6228e-35
5.4169e-07 1.266e-34
5.426e-07 1.3435e-34
5.4351e-07 6.4973e-35
5.4442e-07 3.4759e-35
5.4533e-07 2.9318e-35
5.4624e-07 1.087e-34
5.4715e-07 7.8091e-35
5.4807e-07 2.8322e-35
5.4898e-07 5.6118e-35
5.499e-07 1.1888e-34
5.5082e-07 1.0956e-34
5.5174e-07 3.0948e-35
5.5266e-07 4.3297e-38
5.5359e-07 1.9649e-38
5.5451e-07 1.7219e-38
5.5544e-07 4.0491e-38
5.5637e-07 2.0823e-35
5.573e-07 7.3851e-35
5.5823e-07 6.1383e-35
5.5917e-07 2.6626e-35
5.601e-07 2.813e-38
5.6104e-07 1.7995e-38
5.6198e-07 2.5822e-38
5.6291e-07 8.113e-36
5.6386e-07 6.2381e-35
5.648e-07 1.7365e-34
5.6574e-07 1.0003e-34
5.6669e-07 2.9687e-35
5.6764e-07 5.9073e-37
5.6859e-07 1.2776e-38
5.6954e-07 7.0384e-39
5.7049e-07 4.3961e-39
5.7144e-07 2.5939e-39
5.724e-07 2.9968e-39
5.7336e-07 4.7069e-39
5.7431e-07 7.5194e-39
5.7527e-07 1.4717e-38
5.7624e-07 4.5313e-38
5.772e-07 2.7291e-35
5.7816e-07 1.3255e-34
5.7913e-07 1.2872e-34
5.801e-07 4.3514e-35
5.8107e-07 8.5617e-35
5.8204e-07 2.4408e-34
5.8301e-07 4.2364e-34
5.8399e-07 2.5036e-34
5.8497e-07 1.5836e-34
5.8594e-07 1.1249e-34
5.8692e-07 2.1596e-34
5.8791e-07 2.3456e-34
5.8889e-07 1.2486e-34
5.8987e-07 4.5818e-35
5.9086e-07 6.3621e-38
5.9185e-07 2.9856e-38
5.9284e-07 2.397e-38
5.9383e-07 2.8614e-38
5.9482e-07 2.1454e-35
5.9582e-07 7.3569e-35
5.9681e-07 1.9754e-34
5.9781e-07 1.7784e-34
5.9881e-07 9.1434e-35
5.9981e-07 2.3784e-35
6.0081e-07 5.7958e-36
6.0182e-07 1.0382e-37
6.0282e-07 2.9242e-35
6.0383e-07 2.6662e-34
6.0484e-07 5.4065e-34
6.0585e-07 5.0521e-34
6.0687e-07 1.1712e-34
6.0788e-07 1.7447e-34
6.089e-07 5.1093e-34
6.0992e-07 7.2802e-34
6.1094e-07 4.0282e-34
6.1196e-07 1.1624e-34
6.1298e-07 1.301e-34
6.14e-07 1.5266e-34
6.1503e-07 8.4306e-35
6.1606e-07 5.0914e-35
6.1709e-07 1.902e-35
6.1812e-07 9.7181e-38
6.1916e-07 3.1884e-35
6.2019e-07 8.4428e-35
6.2123e-07 1.3403e-34
6.2227e-07 2.6902e-35
6.2331e-07 1.6197e-36
6.2435e-07 1.3039e-37
6.2539e-07 2.9202e-37
6.2644e-07 1.2379e-34
6.2749e-07 7.8341e-34
6.2854e-07 1.2014e-33
6.2959e-07 5.5173e-34
6.3064e-07 4.269e-34
6.3169e-07 2.0699e-34
6.3275e-07 1.6623e-34
6.3381e-07 5.7882e-35
6.3487e-07 9.1683e-38
6.3593e-07 4.6211e-38
6.3699e-07 2.8466e-38
6.3806e-07 2.3847e-38
6.3912e-07 3.3592e-38
6.4019e-07 1.8501e-36
6.4126e-07 7.9708e-35
6.4234e-07 2.3316e-34
6.4341e-07 1.6166e-34
6.4449e-07 4.1112e-35
6.4556e-07 7.9885e-36
6.4664e-07 2.2899e-37
6.4772e-07 6.0604e-37
6.4881e-07 4.786e-34
6.4989e-07 1.3644e-33
6.5098e-07 1.5748e-33
6.5207e-07 1.0479e-33
6.5316e-07 5.0311e-34
6.5425e-07 1.6433e-33
6.5534e-07 5.0706e-33
6.5644e-07 7.4198e-33
6.5754e-07 5.8549e-33
6.5864e-07 1.6577e-33
6.5974e-07 1.8451e-33
6.6084e-07 3.0782e-33
6.6195e-07 2.6877e-33
6.6305e-07 1.6103e-33
6.6416e-07 4.9898e-34
6.6527e-07 2.5414e-34
6.6638e-07 1.6876e-34
6.675e-07 1.7067e-34
6.6861e-07 1.6798e-34
6.6973e-07 2.1157e-34
6.7085e-07 1.7456e-34
6.7197e-07 4.7781e-35
6.731e-07 6.901e-37
6.7422e-07 3.1789e-38
6.7535e-07 2.0605e-38
6.7648e-07 1.6366e-38
6.7761e-07 1.5721e-38
6.7874e-07 2.0716e-38
6.7988e-07 1.5821e-37
6.8101e-07 2.3916e-35
6.8215e-07 1.1068e-34
6.8329e-07 1.08e-34
6.8444e-07 6.2272e-35
6.8558e-07 6.2705e-37
6.8673e-07 2.4328e-38
6.8788e-07 1.4912e-38
6.8903e-07 1.4848e-38
6.9018e-07 1.7622e-38
6.9133e-07 2.5326e-38
6.9249e-07 6.7722e-38
6.9365e-07 4.7778e-35
6.9481e-07 2.3979e-34
6.9597e-07 3.5976e-34
6.9713e-07 1.5092e-34
6.983e-07 2.853e-35
6.9946e-07 7.1626e-38
7.0063e-07 1.2271e-37
7.0181e-07 2.4183e-37
7.0298e-07 3.8377e-37
7.0415e-07 5.7994e-37
7.0533e-07 1.1299e-35
7.0651e-07 1.6078e-34
7.0769e-07 3.0096e-34
7.0888e-07 2.6225e-33
7.1006e-07 9.0594e-33
7.1125e-07 1.2111e-32
7.1244e-07 8.3607e-33
7.1363e-07 3.1248e-33
7.1482e-07 1.7984e-32
7.1602e-07 3.782e-32
7.1721e-07 3.6375e-32
7.1841e-07 2.3607e-32
7.1961e-07 1.0731e-32
7.2082e-07 4.7543e-33
7.2202e-07 7.0113e-33
7.2323e-07 8.4617e-33
7.2444e-07 7.4102e-33
7.2565e-07 2.7462e-33
7.2686e-07 1.2031e-33
7.2808e-07 1.4494e-33
7.293e-07 1.3076e-33
7.3052e-07 6.3274e-34
7.3174e-07 1.8807e-34
7.3296e-07 2.0653e-34
7.3419e-07 2.7289e-34
7.3541e-07 1.7499e-34
7.3664e-07 1.0464e-34
7.3788e-07 6.3193e-35
7.3911e-07 1.0571e-34
7.4035e-07 1.3872e-34
7.4158e-07 5.7542e-35
7.4282e-07 8.1397e-37
7.4407e-07 2.409e-38
7.4531e-07 1.2217e-38
7.4656e-07 7.8583e-39
7.478e-07 7.1884e-39
7.4905e-07 7.9286e-39
7.5031e-07 8.6704e-39
7.5156e-07 1.0502e-38
7.5282e-07 1.5089e-38
7.5408e-07 2.6644e-38
7.5534e-07 4.1048e-37
7.566e-07 6.1748e-35
7.5787e-07 2.1146e-34
7.5913e-07 2.4155e-34
7.604e-07 1.52e-34
7.6167e-07 1.613e-36
7.6295e-07 2.9636e-38
7.6422e-07 2.3063e-38
7.655e-07 1.8901e-38
7.6678e-07 2.0453e-38
7.6806e-07 4.5267e-38
7.6935e-07 4.8657e-37
7.7063e-07 7.1918e-36
7.7192e-07 1.5703e-34
7.7321e-07 2.9536e-34
7.7451e-07 2.539e-34
7.758e-07 6.0366e-35
7.771e-07 2.1598e-35
7.784e-07 3.9487e-35
7.797e-07 1.7328e-34
7.81e-07 8.6459e-32
7.8231e-07 2.0925e-31
7.8362e-07 2.0187e-31
7.8493e-07 1.3163e-31
7.8624e-07 6.7717e-32
7.8755e-07 8.3195e-32
7.8887e-07 1.3065e-31
7.9019e-07 1.0871e-31
7.9151e-07 5.3667e-32
7.9283e-07 2.3755e-32
7.9416e-07 1.8741e-32
7.9549e-07 1.6283e-32
7.9682e-07 9.818e-33
7.9815e-07 3.2769e-33
7.9949e-07 2.3882e-33
8.0082e-07 3.4028e-33
8.0216e-07 5.5381e-33
8.035e-07 5.9986e-33
8.0485e-07 4.0453e-33
8.0619e-07 2.0654e-33
8.0754e-07 9.4086e-34
8.0889e-07 1.298e-33
8.1024e-07 1.9099e-33
8.116e-07 1.6976e-33
8.1295e-07 7.0523e-34
8.1431e-07 4.5219e-34
8.1568e-07 1.5376e-35
8.1704e-07 1.2044e-36
8.1841e-07 1.087e-33
8.1977e-07 3.2002e-33
8.2114e-07 5.2485e-33
8.2252e-07 3.4381e-33
8.2389e-07 1.4384e-33
8.2527e-07 5.3952e-34
8.2665e-07 4.5166e-34
8.2803e-07 5.3219e-33
8.2942e-07 1.4582e-32
8.308e-07 9.5223e-33
8.3219e-07 6.5694e-33
8.3358e-07 3.1603e-33
8.3498e-07 7.4193e-34
8.3637e-07 9.1789e-34
8.3777e-07 2.3856e-33
8.3917e-07 3.7783e-33
8.4058e-07 3.5618e-33
8.4198e-07 1.5811e-33
8.4339e-07 3.1503e-34
8.448e-07 1.0685e-34
8.4621e-07 3.6122e-37
8.4763e-07 2.4981e-37
8.4904e-07 1.8296e-35
8.5046e-07 2.0049e-34
8.5189e-07 7.0767e-34
8.5331e-07 7.1352e-34
8.5474e-07 2.8935e-34
8.5617e-07 2.9901e-35
8.576e-07 3.4279e-35
8.5903e-07 4.425e-35
8.6047e-07 5.591e-35
8.6191e-07 9.7524e-35
8.6335e-07 1.854e-34
8.6479e-07 2.1348e-34
8.6624e-07 6.3603e-34
8.6769e-07 2.7219e-31
8.6914e-07 7.0606e-31
8.7059e-07 7.0573e-31
8.7205e-07 4.4378e-31
8.735e-07 2.6793e-31
8.7497e-07 1.4504e-31
8.7643e-07 8.7321e-32
8.7789e-07 4.5587e-32
8.7936e-07 2.3397e-32
8.8083e-07 1.0539e-32
8.823e-07 4.3529e-33
8.8378e-07 1.8665e-33
8.8526e-07 1.2759e-33
8.8674e-07 1.1588e-33
8.8822e-07 3.7176e-34
8.8971e-07 1.9886e-34
8.9119e-07 4.2524e-33
8.9268e-07 1.6327e-32
8.9418e-07 2.3373e-32
8.9567e-07 2.1938e-32
8.9717e-07 1.1741e-32
8.9867e-07 7.9133e-33
9.0017e-07 3.7661e-33
9.0168e-07 1.9094e-33
9.0318e-07 5.0976e-34
9.0469e-07 3.9257e-35
9.0621e-07 2.7339e-33
9.0772e-07 2.5159e-32
9.0924e-07 5.5097e-32
9.1076e-07 5.3454e-32
9.1228e-07 3.326e-32
9.1381e-07 1.7913e-32
9.1534e-07 3.8295e-33
9.1687e-07 1.0763e-33
9.184e-07 1.0209e-32
9.1994e-07 2.0376e-31
9.2147e-07 3.8827e-31
9.2301e-07 3.6615e-31
9.2456e-07 2.4717e-31
9.261e-07 1.4009e-31
9.2765e-07 4.1297e-32
9.292e-07 6.6287e-32
9.3076e-07 1.7438e-31
9.3231e-07 2.9048e-31
9.3387e-07 3.4064e-31
9.3543e-07 2.2855e-31
9.37e-07 1.5226e-31
9.3857e-07 3.5233e-32
9.4013e-07 1.6824e-32
9.4171e-07 1.0309e-32
9.4328e-07 1.5649e-32
9.4486e-07 3.2115e-32
9.4644e-07 3.2528e-32
9.4802e-07 2.1418e-32
9.4961e-07 1.0635e-32
9.5119e-07 5.5269e-33
9.5278e-07 4.7925e-33
9.5438e-07 4.7493e-33
9.5597e-07 2.4841e-33
9.5757e-07 7.6006e-34
9.5917e-07 5.8087e-35
9.6078e-07 3.1225e-34
9.6238e-07 1.8161e-33
9.6399e-07 3.4421e-33
9.656e-07 5.0918e-33
9.6722e-07 4.2933e-33
9.6884e-07 2.231e-33
9.7046e-07 1.4857e-33
9.7208e-07 1.7751e-33
9.737e-07 1.4583e-33
9.7533e-07 5.6078e-34
9.7696e-07 7.7138e-33
9.786e-07 1.9718e-32
9.8023e-07 2.9802e-32
9.8187e-07 2.2629e-32
9.8351e-07 1.3975e-32
9.8516e-07 7.154e-33
9.868e-07 1.4703e-33
9.8845e-07 1.2109e-33
9.9011e-07 3.2601e-33
9.9176e-07 9.4436e-33
9.9342e-07 1.5432e-32
9.9508e-07 1.7049e-32
9.9675e-07 1.1356e-32
9.9841e-07 5.9606e-33
1.0001e-06 2.2613e-33
1.0018e-06 9.3801e-34
1.0034e-06 1.854e-34
1.0051e-06 3.6661e-36
1.0068e-06 8.6762e-35
1.0085e-06 1.4204e-33
1.0102e-06 4.5442e-33
1.0118e-06 1.1729e-32
1.0135e-06 1.8159e-32
1.0152e-06 1.3697e-32
1.0169e-06 5.7652e-33
1.0186e-06 2.2475e-33
1.0203e-06 1.221e-33
1.022e-06 6.2095e-34
1.0237e-06 2.9761e-34
1.0255e-06 2.6848e-34
1.0272e-06 6.4445e-34
1.0289e-06 1.2538e-33
1.0306e-06 2.3615e-33
1.0323e-06 3.4134e-33
1.0341e-06 3.6713e-31
1.0358e-06 1.552e-30
1.0375e-06 2.6686e-30
1.0393e-06 2.4786e-30
1.041e-06 1.5682e-30
1.0427e-06 7.842e-31
1.0445e-06 2.127e-31
1.0462e-06 5.2204e-31
1.048e-06 3.1429e-30
1.0497e-06 6.6823e-30
1.0515e-06 6.9568e-30
1.0532e-06 5.2406e-30
1.055e-06 2.6677e-30
1.0568e-06 1.1198e-30
1.0585e-06 5.406e-31
1.0603e-06 3.4302e-31
1.0621e-06 8.575e-31
1.0639e-06 1.4655e-30
1.0656e-06 1.2287e-30
1.0674e-06 9.781e-31
1.0692e-06 6.1859e-31
1.071e-06 4.269e-31
1.0728e-06 3.5901e-31
1.0746e-06 3.117e-31
1.0764e-06 2.396e-31
1.0782e-06 1.5639e-31
1.08e-06 8.8023e-32
1.0818e-06 4.5603e-32
1.0836e-06 2.5512e-32
1.0854e-06 1.3153e-32
1.0872e-06 1.7927e-32
1.089e-06 3.8465e-32
1.0908e-06 6.7707e-32
1.0927e-06 1.1723e-31
1.0945e-06 1.0675e-31
1.0963e-06 9.8501e-32
1.0982e-06 5.3161e-32
1.1e-06 2.764e-32