File: material/gas/smooth_input/h2o_uv_vis_toa_T1_P0.txt
2.8e-07 -0
2.8047e-07 -0
2.8094e-07 -0
2.814e-07 -0
2.8187e-07 -0
2.8234e-07 -0
2.8282e-07 -0
2.8329e-07 -0
2.8376e-07 -0
2.8423e-07 -0
2.8471e-07 -0
2.8518e-07 -0
2.8566e-07 -0
2.8614e-07 -0
2.8661e-07 -0
2.8709e-07 -0
2.8757e-07 -0
2.8805e-07 -0
2.8853e-07 -0
2.8901e-07 -0
2.895e-07 -0
2.8998e-07 -0
2.9046e-07 -0
2.9095e-07 -0
2.9143e-07 -0
2.9192e-07 -0
2.9241e-07 -0
2.929e-07 -0
2.9339e-07 -0
2.9388e-07 -0
2.9437e-07 -0
2.9486e-07 -0
2.9535e-07 -0
2.9584e-07 -0
2.9634e-07 -0
2.9683e-07 -0
2.9733e-07 -0
2.9782e-07 -0
2.9832e-07 -0
2.9882e-07 -0
2.9932e-07 -0
2.9982e-07 -0
3.0032e-07 -0
3.0082e-07 -0
3.0132e-07 -0
3.0182e-07 -0
3.0233e-07 -0
3.0283e-07 -0
3.0334e-07 -0
3.0384e-07 -0
3.0435e-07 -0
3.0486e-07 -0
3.0537e-07 -0
3.0588e-07 -0
3.0639e-07 -0
3.069e-07 -0
3.0741e-07 -0
3.0792e-07 -0
3.0844e-07 -0
3.0895e-07 -0
3.0947e-07 -0
3.0998e-07 -0
3.105e-07 -0
3.1102e-07 -0
3.1154e-07 -0
3.1206e-07 -0
3.1258e-07 -0
3.131e-07 -0
3.1362e-07 -0
3.1415e-07 -0
3.1467e-07 -0
3.152e-07 -0
3.1572e-07 -0
3.1625e-07 -0
3.1678e-07 -0
3.1731e-07 -0
3.1784e-07 -0
3.1837e-07 -0
3.189e-07 -0
3.1943e-07 -0
3.1996e-07 -0
3.205e-07 -0
3.2103e-07 -0
3.2157e-07 -0
3.2211e-07 -0
3.2264e-07 -0
3.2318e-07 -0
3.2372e-07 -0
3.2426e-07 -0
3.248e-07 -0
3.2535e-07 -0
3.2589e-07 -0
3.2643e-07 -0
3.2698e-07 -0
3.2752e-07 -0
3.2807e-07 -0
3.2862e-07 -0
3.2917e-07 -0
3.2972e-07 -0
3.3027e-07 -0
3.3082e-07 -0
3.3137e-07 -0
3.3192e-07 -0
3.3248e-07 -0
3.3303e-07 -0
3.3359e-07 -0
3.3414e-07 -0
3.347e-07 -0
3.3526e-07 -0
3.3582e-07 -0
3.3638e-07 -0
3.3694e-07 -0
3.375e-07 -0
3.3807e-07 -0
3.3863e-07 -0
3.392e-07 -0
3.3976e-07 -0
3.4033e-07 -0
3.409e-07 -0
3.4147e-07 -0
3.4204e-07 -0
3.4261e-07 -0
3.4318e-07 -0
3.4375e-07 -0
3.4433e-07 -0
3.449e-07 -0
3.4548e-07 -0
3.4605e-07 -0
3.4663e-07 -0
3.4721e-07 -0
3.4779e-07 -0
3.4837e-07 -0
3.4895e-07 -0
3.4953e-07 -0
3.5012e-07 -0
3.507e-07 -0
3.5129e-07 -0
3.5187e-07 -0
3.5246e-07 -0
3.5305e-07 -0
3.5364e-07 -0
3.5423e-07 -0
3.5482e-07 -0
3.5541e-07 -0
3.5601e-07 -0
3.566e-07 -0
3.572e-07 -0
3.5779e-07 -0
3.5839e-07 -0
3.5899e-07 -0
3.5959e-07 -0
3.6019e-07 -0
3.6079e-07 -0
3.6139e-07 -0
3.6199e-07 -0
3.626e-07 -0
3.632e-07 -0
3.6381e-07 -0
3.6442e-07 -0
3.6502e-07 -0
3.6563e-07 -0
3.6624e-07 -0
3.6686e-07 -0
3.6747e-07 -0
3.6808e-07 -0
3.687e-07 -0
3.6931e-07 -0
3.6993e-07 -0
3.7054e-07 -0
3.7116e-07 -0
3.7178e-07 -0
3.724e-07 -0
3.7302e-07 -0
3.7365e-07 -0
3.7427e-07 -0
3.749e-07 -0
3.7552e-07 -0
3.7615e-07 -0
3.7678e-07 -0
3.7741e-07 -0
3.7804e-07 -0
3.7867e-07 -0
3.793e-07 -0
3.7993e-07 -0
3.8057e-07 -0
3.812e-07 -0
3.8184e-07 -0
3.8247e-07 -0
3.8311e-07 -0
3.8375e-07 -0
3.8439e-07 -0
3.8503e-07 -0
3.8568e-07 4.2585e-38
3.8632e-07 6.6273e-37
3.8697e-07 3.1589e-36
3.8761e-07 1.0924e-35
3.8826e-07 3.7612e-35
3.8891e-07 1.1543e-32
3.8956e-07 3.7356e-32
3.9021e-07 1.0505e-31
3.9086e-07 1.4297e-31
3.9151e-07 1.0123e-31
3.9216e-07 6.8971e-32
3.9282e-07 1.0195e-31
3.9347e-07 6.3556e-32
3.9413e-07 1.3855e-32
3.9479e-07 4.2994e-32
3.9545e-07 6.544e-32
3.9611e-07 1.8028e-31
3.9677e-07 5.869e-31
3.9743e-07 1.092e-30
3.9809e-07 5.0655e-31
3.9876e-07 6.1455e-31
3.9942e-07 6.1834e-31
4.0009e-07 5.2141e-31
4.0076e-07 3.625e-31
4.0143e-07 2.2241e-31
4.021e-07 1.8706e-31
4.0277e-07 1.1663e-31
4.0344e-07 8.2131e-32
4.0411e-07 6.6267e-32
4.0479e-07 4.8727e-32
4.0546e-07 2.9045e-32
4.0614e-07 1.3696e-32
4.0682e-07 6.0695e-33
4.075e-07 6.9235e-33
4.0818e-07 8.7034e-33
4.0886e-07 1.1085e-32
4.0954e-07 3.5485e-35
4.1023e-07 1.1462e-35
4.1091e-07 2.4924e-33
4.116e-07 2.1252e-33
4.1228e-07 2.3277e-32
4.1297e-07 4.8076e-32
4.1366e-07 4.3572e-32
4.1435e-07 8.5265e-32
4.1504e-07 2.6068e-31
4.1574e-07 3.6708e-31
4.1643e-07 7.1571e-31
4.1712e-07 4.9448e-31
4.1782e-07 2.9463e-31
4.1852e-07 3.1945e-31
4.1922e-07 2.7032e-31
4.1992e-07 1.6726e-31
4.2062e-07 9.2392e-32
4.2132e-07 5.659e-32
4.2202e-07 3.3005e-32
4.2273e-07 1.494e-32
4.2343e-07 6.9073e-33
4.2414e-07 3.1871e-33
4.2485e-07 5.5343e-32
4.2556e-07 1.0099e-31
4.2627e-07 1.9998e-31
4.2698e-07 8.1699e-32
4.2769e-07 1.1038e-31
4.2841e-07 8.352e-32
4.2912e-07 9.7984e-32
4.2984e-07 5.291e-32
4.3055e-07 3.1047e-32
4.3127e-07 9.3836e-33
4.3199e-07 6.4815e-33
4.3271e-07 2.6948e-33
4.3344e-07 3.8835e-34
4.3416e-07 5.4472e-36
4.3488e-07 3.1381e-35
4.3561e-07 8.2278e-33
4.3634e-07 3.8341e-33
4.3707e-07 9.3567e-35
4.3779e-07 1.5304e-32
4.3853e-07 4.8791e-32
4.3926e-07 1.7744e-31
4.3999e-07 2.8681e-31
4.4073e-07 4.3663e-31
4.4146e-07 1.3005e-30
4.422e-07 2.3075e-30
4.4294e-07 4.6435e-30
4.4368e-07 1.7774e-30
4.4442e-07 2.1831e-30
4.4516e-07 2.4891e-30
4.459e-07 2.3978e-30
4.4664e-07 1.4975e-30
4.4739e-07 1.1397e-30
4.4814e-07 6.6443e-31
4.4889e-07 4.4003e-31
4.4963e-07 2.1043e-31
4.5038e-07 1.2278e-31
4.5114e-07 6.5299e-32
4.5189e-07 2.7253e-32
4.5264e-07 7.3313e-32
4.534e-07 8.1226e-32
4.5416e-07 5.2325e-32
4.5491e-07 8.7115e-32
4.5567e-07 8.444e-32
4.5643e-07 1.1254e-31
4.572e-07 9.3883e-32
4.5796e-07 6.0592e-32
4.5872e-07 6.5423e-32
4.5949e-07 4.5675e-32
4.6026e-07 3.6175e-32
4.6102e-07 1.364e-32
4.6179e-07 3.5361e-33
4.6256e-07 7.7476e-33
4.6334e-07 1.7862e-33
4.6411e-07 1.3226e-32
4.6489e-07 1.114e-32
4.6566e-07 5.0137e-32
4.6644e-07 2.8332e-31
4.6722e-07 7.8413e-31
4.68e-07 6.2438e-31
4.6878e-07 1.0395e-30
4.6956e-07 1.8733e-30
4.7034e-07 1.4438e-30
4.7113e-07 1.213e-30
4.7192e-07 8.7297e-31
4.727e-07 1.0762e-30
4.7349e-07 8.8164e-31
4.7428e-07 5.8722e-31
4.7507e-07 3.5499e-31
4.7587e-07 2.3537e-31
4.7666e-07 1.666e-31
4.7746e-07 7.9078e-32
4.7825e-07 3.679e-32
4.7905e-07 1.5185e-32
4.7985e-07 8.286e-34
4.8065e-07 1.4478e-34
4.8146e-07 5.9331e-33
4.8226e-07 2.1483e-32
4.8306e-07 8.4364e-32
4.8387e-07 3.1874e-31
4.8468e-07 1.2217e-30
4.8549e-07 1.7097e-30
4.863e-07 9.2488e-31
4.8711e-07 1.2426e-30
4.8792e-07 1.1759e-30
4.8874e-07 1.1131e-30
4.8955e-07 1.083e-30
4.9037e-07 6.9031e-31
4.9119e-07 5.9431e-31
4.9201e-07 3.9079e-31
4.9283e-07 2.971e-31
4.9365e-07 1.4973e-31
4.9448e-07 9.1328e-32
4.953e-07 4.7704e-32
4.9613e-07 3.5277e-32
4.9696e-07 4.5146e-32
4.9779e-07 1.4739e-31
4.9862e-07 4.8632e-31
4.9945e-07 8.6961e-31
5.0028e-07 1.4977e-30
5.0112e-07 2.5964e-30
5.0195e-07 5.1551e-30
5.0279e-07 7.7371e-30
5.0363e-07 2.1908e-29
5.0447e-07 1.9057e-29
5.0531e-07 9.1311e-30
5.0616e-07 1.237e-29
5.07e-07 1.3129e-29
5.0785e-07 1.3016e-29
5.087e-07 9.013e-30
5.0954e-07 7.3469e-30
5.104e-07 4.6478e-30
5.1125e-07 3.0443e-30
5.121e-07 1.938e-30
5.1296e-07 1.1773e-30
5.1381e-07 5.7646e-31
5.1467e-07 3.4673e-31
5.1553e-07 2.6677e-31
5.1639e-07 2.0502e-31
5.1725e-07 1.5518e-31
5.1811e-07 1.249e-31
5.1898e-07 1.0901e-31
5.1984e-07 8.5989e-32
5.2071e-07 6.5201e-32
5.2158e-07 8.3495e-32
5.2245e-07 1.3535e-31
5.2332e-07 6.0825e-31
5.242e-07 1.9585e-30
5.2507e-07 1.6627e-30
5.2595e-07 5.4606e-31
5.2683e-07 1.3315e-30
5.2771e-07 9.374e-31
5.2859e-07 9.0137e-31
5.2947e-07 9.5375e-31
5.3035e-07 1.0106e-30
5.3124e-07 7.546e-31
5.3213e-07 5.6088e-31
5.3301e-07 4.0721e-31
5.339e-07 2.6711e-31
5.3479e-07 3.2586e-31
5.3569e-07 4.3544e-31
5.3658e-07 6.138e-31
5.3748e-07 8.2198e-31
5.3837e-07 1.3655e-30
5.3927e-07 2.2295e-30
5.4017e-07 4.3371e-30
5.4107e-07 1.0235e-29
5.4198e-07 9.3787e-30
5.4288e-07 6.1994e-30
5.4379e-07 8.5854e-30
5.447e-07 6.1708e-30
5.4561e-07 7.6475e-30
5.4652e-07 9.4352e-30
5.4743e-07 4.9624e-30
5.4834e-07 3.5367e-30
5.4926e-07 3.0301e-30
5.5017e-07 2.5964e-30
5.5109e-07 1.7661e-30
5.5201e-07 9.3427e-31
5.5293e-07 5.8846e-31
5.5386e-07 3.473e-31
5.5478e-07 2.8395e-31
5.5571e-07 1.4847e-31
5.5663e-07 4.8032e-32
5.5756e-07 1.1701e-31
5.5849e-07 2.3061e-31
5.5943e-07 3.1302e-31
5.6036e-07 4.9014e-31
5.613e-07 5.38e-31
5.6223e-07 6.5194e-31
5.6317e-07 5.7726e-31
5.6411e-07 5.6464e-31
5.6505e-07 6.9219e-31
5.66e-07 9.4482e-31
5.6694e-07 2.3885e-30
5.6789e-07 7.8022e-30
5.6883e-07 1.9653e-29
5.6978e-07 1.8243e-29
5.7074e-07 7.9626e-30
5.7169e-07 9.9087e-30
5.7264e-07 1.2886e-29
5.736e-07 1.0399e-29
5.7456e-07 1.2581e-29
5.7551e-07 9.2947e-30
5.7647e-07 7.7617e-30
5.7744e-07 7.8012e-30
5.784e-07 4.4234e-30
5.7937e-07 3.2827e-30
5.8033e-07 2.6325e-30
5.813e-07 2.6132e-30
5.8227e-07 2.9385e-30
5.8324e-07 3.4846e-30
5.8422e-07 4.1117e-30
5.8519e-07 4.8358e-30
5.8617e-07 9.0752e-30
5.8715e-07 1.8195e-29
5.8813e-07 5.2514e-29
5.8911e-07 9.4503e-29
5.9009e-07 9.2255e-29
5.9108e-07 7.032e-29
5.9206e-07 9.0487e-29
5.9305e-07 5.4826e-29
5.9404e-07 6.8869e-29
5.9503e-07 8.3931e-29
5.9603e-07 4.9396e-29
5.9702e-07 5.172e-29
5.9802e-07 3.7942e-29
5.9902e-07 2.9723e-29
6.0002e-07 2.0546e-29
6.0102e-07 1.1494e-29
6.0202e-07 8.0851e-30
6.0303e-07 4.8008e-30
6.0403e-07 2.3881e-30
6.0504e-07 1.5307e-30
6.0605e-07 9.6954e-31
6.0706e-07 5.1191e-31
6.0808e-07 3.6062e-31
6.0909e-07 2.4267e-31
6.1011e-07 1.603e-31
6.1113e-07 1.0263e-31
6.1215e-07 8.4439e-32
6.1317e-07 5.5869e-32
6.1419e-07 5.4333e-32
6.1522e-07 6.8625e-32
6.1624e-07 6.9696e-32
6.1727e-07 8.4652e-32
6.183e-07 1.3561e-31
6.1933e-07 1.4594e-31
6.2037e-07 1.6856e-31
6.214e-07 1.8657e-31
6.2244e-07 2.4731e-31
6.2348e-07 3.7837e-31
6.2452e-07 7.8822e-31
6.2556e-07 2.3296e-30
6.2661e-07 7.0448e-30
6.2765e-07 1.3464e-29
6.287e-07 1.4729e-29
6.2975e-07 9.7061e-30
6.308e-07 2.9305e-30
6.3185e-07 1.286e-29
6.3291e-07 9.641e-30
6.3397e-07 7.1027e-30
6.3502e-07 8.1697e-30
6.3608e-07 6.6651e-30
6.3715e-07 6.6247e-30
6.3821e-07 5.2227e-30
6.3927e-07 5.5648e-30
6.4034e-07 5.4838e-30
6.4141e-07 5.5724e-30
6.4248e-07 5.5192e-30
6.4355e-07 7.3751e-30
6.4463e-07 1.0619e-29
6.457e-07 2.2772e-29
6.4678e-07 5.1499e-29
6.4786e-07 8.1953e-29
6.4894e-07 6.5872e-29
6.5003e-07 3.6146e-29
6.5111e-07 4.1371e-29
6.522e-07 6.1898e-29
6.5329e-07 2.8135e-29
6.5438e-07 3.5245e-29
6.5547e-07 4.5502e-29
6.5656e-07 3.5276e-29
6.5766e-07 3.1106e-29
6.5876e-07 2.0163e-29
6.5986e-07 1.2876e-29
6.6096e-07 7.9801e-30
6.6206e-07 4.4793e-30
6.6317e-07 4.2679e-30
6.6427e-07 3.7506e-30
6.6538e-07 2.6493e-30
6.6649e-07 2.1822e-30
6.676e-07 1.2271e-30
6.6872e-07 8.9606e-31
6.6983e-07 4.6194e-31
6.7095e-07 2.7422e-31
6.7207e-07 1.8324e-31
6.7319e-07 1.2032e-31
6.7432e-07 1.2049e-31
6.7544e-07 1.2479e-31
6.7657e-07 2.4505e-31
6.777e-07 3.4525e-31
6.7883e-07 5.7979e-31
6.7996e-07 9.671e-31
6.811e-07 1.3566e-30
6.8224e-07 2.4093e-30
6.8338e-07 2.5883e-30
6.8452e-07 3.6978e-30
6.8566e-07 3.3853e-30
6.868e-07 5.6037e-30
6.8795e-07 3.1176e-30
6.891e-07 3.3571e-30
6.9025e-07 7.3099e-30
6.914e-07 1.8569e-29
6.9255e-07 7.2716e-29
6.9371e-07 1.3685e-28
6.9487e-07 1.3466e-28
6.9603e-07 1.0325e-28
6.9719e-07 3.6923e-29
6.9835e-07 5.9433e-29
6.9952e-07 1.0595e-28
7.0069e-07 1.0183e-28
7.0186e-07 1.0017e-28
7.0303e-07 8.0974e-29
7.042e-07 6.1661e-29
7.0538e-07 6.7775e-29
7.0655e-07 5.5894e-29
7.0773e-07 4.7894e-29
7.0891e-07 3.9403e-29
7.101e-07 3.9541e-29
7.1128e-07 3.2023e-29
7.1247e-07 3.1144e-29
7.1366e-07 3.5708e-29
7.1485e-07 5.4366e-29
7.1604e-07 9.9155e-29
7.1724e-07 3.3265e-28
7.1844e-07 4.0534e-28
7.1964e-07 4.4357e-28
7.2084e-07 3.0739e-28
7.2204e-07 1.2923e-28
7.2324e-07 2.4397e-28
7.2445e-07 3.3759e-28
7.2566e-07 3.2507e-28
7.2687e-07 2.9351e-28
7.2809e-07 2.9933e-28
7.293e-07 2.8152e-28
7.3052e-07 2.8255e-28
7.3174e-07 2.3304e-28
7.3296e-07 1.3299e-28
7.3418e-07 8.9955e-29
7.3541e-07 9.7171e-29
7.3664e-07 1.0324e-28
7.3787e-07 6.6963e-29
7.391e-07 6.0019e-29
7.4033e-07 3.5836e-29
7.4157e-07 2.4241e-29
7.428e-07 1.6762e-29
7.4404e-07 8.0819e-30
7.4529e-07 5.8038e-30
7.4653e-07 3.9044e-30
7.4778e-07 2.8346e-30
7.4902e-07 1.8822e-30
7.5027e-07 1.8531e-30
7.5153e-07 1.3917e-30
7.5278e-07 7.8638e-31
7.5404e-07 7.2858e-31
7.553e-07 5.3002e-31
7.5656e-07 3.9211e-31
7.5782e-07 6.2522e-31
7.5908e-07 5.2449e-31
7.6035e-07 3.7852e-31
7.6162e-07 2.7331e-31
7.6289e-07 1.462e-31
7.6417e-07 1.3157e-31
7.6544e-07 6.1916e-32
7.6672e-07 4.3566e-32
7.68e-07 3.212e-32
7.6928e-07 4.3998e-32
7.7056e-07 6.3665e-32
7.7185e-07 1.328e-31
7.7314e-07 1.9591e-31
7.7443e-07 2.4702e-31
7.7572e-07 3.5819e-31
7.7702e-07 3.3545e-31
7.7831e-07 4.9456e-31
7.7961e-07 9.4284e-31
7.8091e-07 1.0385e-30
7.8222e-07 1.7923e-30
7.8352e-07 3.6972e-30
7.8483e-07 8.3945e-30
7.8614e-07 1.6984e-29
7.8745e-07 3.5529e-29
7.8877e-07 5.2003e-29
7.9008e-07 6.9128e-29
7.914e-07 5.4804e-29
7.9272e-07 5.0084e-29
7.9405e-07 1.9633e-29
7.9537e-07 3.9519e-29
7.967e-07 7.591e-29
7.9803e-07 4.1038e-29
7.9936e-07 4.7807e-29
8.007e-07 6.9294e-29
8.0203e-07 7.0387e-29
8.0337e-07 6.9463e-29
8.0471e-07 5.62e-29
8.0606e-07 3.2063e-29
8.074e-07 3.4682e-29
8.0875e-07 5.1285e-29
8.101e-07 7.4486e-29
8.1145e-07 1.165e-28
8.1281e-07 1.9197e-28
8.1416e-07 3.0919e-28
8.1552e-07 3.8681e-28
8.1688e-07 4.001e-28
8.1825e-07 3.5821e-28
8.1961e-07 2.7954e-28
8.2098e-07 1.425e-28
8.2235e-07 3.2011e-28
8.2372e-07 3.9739e-28
8.251e-07 1.4498e-28
8.2647e-07 1.6666e-28
8.2785e-07 2.5494e-28
8.2924e-07 2.3729e-28
8.3062e-07 1.9901e-28
8.3201e-07 1.9941e-28
8.334e-07 1.7018e-28
8.3479e-07 1.1555e-28
8.3618e-07 1.0992e-28
8.3758e-07 8.7527e-29
8.3897e-07 6.1333e-29
8.4037e-07 5.0019e-29
8.4178e-07 4.6014e-29
8.4318e-07 2.973e-29
8.4459e-07 2.4899e-29
8.46e-07 1.3854e-29
8.4741e-07 1.079e-29
8.4883e-07 1.5072e-29
8.5024e-07 1.4748e-29
8.5166e-07 2.2217e-29
8.5308e-07 1.3898e-29
8.5451e-07 1.5163e-29
8.5593e-07 9.6334e-30
8.5736e-07 9.0712e-30
8.5879e-07 5.3696e-30
8.6023e-07 3.5739e-30
8.6166e-07 2.2048e-30
8.631e-07 1.6116e-30
8.6454e-07 8.7089e-31
8.6598e-07 5.135e-31
8.6743e-07 4.6329e-31
8.6888e-07 4.1997e-31
8.7033e-07 4.5969e-31
8.7178e-07 4.8567e-31
8.7324e-07 7.3226e-31
8.7469e-07 1.2575e-30
8.7615e-07 2.0455e-30
8.7762e-07 3.4013e-30
8.7908e-07 4.9427e-30
8.8055e-07 6.5459e-30
8.8202e-07 9.6128e-30
8.8349e-07 9.1183e-30
8.8496e-07 1.0492e-29
8.8644e-07 1.8831e-29
8.8792e-07 1.8796e-29
8.894e-07 1.5684e-29
8.9089e-07 2.4222e-29
8.9237e-07 6.058e-29
8.9386e-07 1.335e-28
8.9536e-07 2.5879e-28
8.9685e-07 3.7786e-28
8.9835e-07 4.2545e-28
8.9985e-07 4.5932e-28
9.0135e-07 4.3662e-28
9.0285e-07 3.3615e-28
9.0436e-07 1.7427e-28
9.0587e-07 2.1753e-28
9.0738e-07 4.3365e-28
9.089e-07 4.5127e-28
9.1041e-07 4.3626e-28
9.1193e-07 3.8454e-28
9.1346e-07 5.5341e-28
9.1498e-07 4.7942e-28
9.1651e-07 4.8601e-28
9.1804e-07 4.9276e-28
9.1957e-07 2.7422e-28
9.211e-07 2.4335e-28
9.2264e-07 2.3595e-28
9.2418e-07 3.4588e-28
9.2572e-07 3.0648e-28
9.2727e-07 3.9272e-28
9.2882e-07 7.9316e-28
9.3037e-07 1.0656e-27
9.3192e-07 1.5824e-27
9.3348e-07 2.1618e-27
9.3503e-07 1.9134e-27
9.366e-07 1.9313e-27
9.3816e-07 1.7816e-27
9.3972e-07 9.1239e-28
9.4129e-07 1.1887e-27
9.4286e-07 1.3047e-27
9.4444e-07 1.4418e-27
9.4601e-07 1.4497e-27
9.4759e-07 1.3388e-27
9.4918e-07 1.225e-27
9.5076e-07 1.1658e-27
9.5235e-07 1.4372e-27
9.5394e-07 1.1043e-27
9.5553e-07 1.2286e-27
9.5712e-07 1.0191e-27
9.5872e-07 1.0376e-27
9.6032e-07 1.037e-27
9.6192e-07 8.9087e-28
9.6353e-07 7.407e-28
9.6514e-07 7.3772e-28
9.6675e-07 6.5264e-28
9.6836e-07 3.2575e-28
9.6998e-07 2.8214e-28
9.716e-07 2.5856e-28
9.7322e-07 3.8785e-28
9.7484e-07 4.3544e-28
9.7647e-07 4.3108e-28
9.781e-07 3.1264e-28
9.7973e-07 3.4471e-28
9.8137e-07 2.0574e-28
9.8301e-07 2.0132e-28
9.8465e-07 1.5313e-28
9.8629e-07 8.2399e-29
9.8794e-07 7.5538e-29
9.8959e-07 5.9359e-29
9.9124e-07 4.2067e-29
9.9289e-07 4.9256e-29
9.9455e-07 1.9739e-29
9.9621e-07 1.6681e-29
9.9787e-07 1.7296e-29
9.9954e-07 2.069e-29
1.0012e-06 3.0281e-29
1.0029e-06 3.3288e-29
1.0046e-06 2.1382e-29
1.0062e-06 1.5435e-29
1.0079e-06 2.27e-29
1.0096e-06 3.9519e-29
1.0113e-06 1.6966e-29
1.013e-06 1.2729e-29
1.0147e-06 1.3124e-29
1.0163e-06 1.0925e-29
1.018e-06 1.1004e-29
1.0197e-06 1.6452e-29
1.0214e-06 1.0965e-29
1.0232e-06 2.118e-29
1.0249e-06 1.3884e-29
1.0266e-06 1.0567e-29
1.0283e-06 1.1982e-29
1.03e-06 5.1884e-30