File: material/gas/smooth_input/h2o_uv_vis_T0_P1.txt
2.8e-07 -0
2.8047e-07 -0
2.8094e-07 -0
2.814e-07 -0
2.8187e-07 -0
2.8234e-07 -0
2.8282e-07 -0
2.8329e-07 -0
2.8376e-07 -0
2.8423e-07 -0
2.8471e-07 -0
2.8518e-07 -0
2.8566e-07 -0
2.8614e-07 -0
2.8661e-07 -0
2.8709e-07 -0
2.8757e-07 -0
2.8805e-07 -0
2.8853e-07 -0
2.8901e-07 -0
2.895e-07 -0
2.8998e-07 -0
2.9046e-07 -0
2.9095e-07 -0
2.9143e-07 -0
2.9192e-07 -0
2.9241e-07 -0
2.929e-07 -0
2.9339e-07 -0
2.9388e-07 -0
2.9437e-07 -0
2.9486e-07 -0
2.9535e-07 -0
2.9584e-07 -0
2.9634e-07 -0
2.9683e-07 -0
2.9733e-07 -0
2.9782e-07 -0
2.9832e-07 -0
2.9882e-07 -0
2.9932e-07 -0
2.9982e-07 -0
3.0032e-07 -0
3.0082e-07 -0
3.0132e-07 -0
3.0182e-07 -0
3.0233e-07 -0
3.0283e-07 -0
3.0334e-07 -0
3.0384e-07 -0
3.0435e-07 -0
3.0486e-07 -0
3.0537e-07 -0
3.0588e-07 -0
3.0639e-07 -0
3.069e-07 -0
3.0741e-07 -0
3.0792e-07 -0
3.0844e-07 -0
3.0895e-07 -0
3.0947e-07 -0
3.0998e-07 -0
3.105e-07 -0
3.1102e-07 -0
3.1154e-07 -0
3.1206e-07 -0
3.1258e-07 -0
3.131e-07 -0
3.1362e-07 -0
3.1415e-07 -0
3.1467e-07 -0
3.152e-07 -0
3.1572e-07 -0
3.1625e-07 -0
3.1678e-07 -0
3.1731e-07 -0
3.1784e-07 -0
3.1837e-07 -0
3.189e-07 -0
3.1943e-07 -0
3.1996e-07 -0
3.205e-07 -0
3.2103e-07 -0
3.2157e-07 -0
3.2211e-07 -0
3.2264e-07 -0
3.2318e-07 -0
3.2372e-07 -0
3.2426e-07 -0
3.248e-07 -0
3.2535e-07 -0
3.2589e-07 -0
3.2643e-07 -0
3.2698e-07 -0
3.2752e-07 -0
3.2807e-07 -0
3.2862e-07 -0
3.2917e-07 -0
3.2972e-07 -0
3.3027e-07 -0
3.3082e-07 -0
3.3137e-07 -0
3.3192e-07 -0
3.3248e-07 -0
3.3303e-07 -0
3.3359e-07 -0
3.3414e-07 -0
3.347e-07 -0
3.3526e-07 -0
3.3582e-07 -0
3.3638e-07 -0
3.3694e-07 -0
3.375e-07 -0
3.3807e-07 -0
3.3863e-07 -0
3.392e-07 -0
3.3976e-07 -0
3.4033e-07 -0
3.409e-07 -0
3.4147e-07 -0
3.4204e-07 -0
3.4261e-07 -0
3.4318e-07 -0
3.4375e-07 -0
3.4433e-07 -0
3.449e-07 -0
3.4548e-07 -0
3.4605e-07 -0
3.4663e-07 -0
3.4721e-07 -0
3.4779e-07 -0
3.4837e-07 -0
3.4895e-07 -0
3.4953e-07 -0
3.5012e-07 -0
3.507e-07 -0
3.5129e-07 -0
3.5187e-07 -0
3.5246e-07 -0
3.5305e-07 -0
3.5364e-07 -0
3.5423e-07 -0
3.5482e-07 -0
3.5541e-07 -0
3.5601e-07 -0
3.566e-07 -0
3.572e-07 -0
3.5779e-07 -0
3.5839e-07 -0
3.5899e-07 -0
3.5959e-07 -0
3.6019e-07 -0
3.6079e-07 -0
3.6139e-07 -0
3.6199e-07 -0
3.626e-07 -0
3.632e-07 -0
3.6381e-07 -0
3.6442e-07 -0
3.6502e-07 -0
3.6563e-07 -0
3.6624e-07 -0
3.6686e-07 -0
3.6747e-07 -0
3.6808e-07 -0
3.687e-07 -0
3.6931e-07 -0
3.6993e-07 -0
3.7054e-07 -0
3.7116e-07 -0
3.7178e-07 -0
3.724e-07 -0
3.7302e-07 -0
3.7365e-07 -0
3.7427e-07 -0
3.749e-07 -0
3.7552e-07 -0
3.7615e-07 -0
3.7678e-07 -0
3.7741e-07 -0
3.7804e-07 -0
3.7867e-07 -0
3.793e-07 -0
3.7993e-07 -0
3.8057e-07 -0
3.812e-07 -0
3.8184e-07 -0
3.8247e-07 -0
3.8311e-07 -0
3.8375e-07 -0
3.8439e-07 -0
3.8503e-07 -0
3.8568e-07 2.6115e-38
3.8632e-07 3.8434e-37
3.8697e-07 1.8904e-36
3.8761e-07 6.5087e-36
3.8826e-07 2.2352e-35
3.8891e-07 8.1392e-33
3.8956e-07 2.6697e-32
3.9021e-07 7.6846e-32
3.9086e-07 1.0461e-31
3.9151e-07 7.3263e-32
3.9216e-07 5.1463e-32
3.9282e-07 7.6137e-32
3.9347e-07 4.811e-32
3.9413e-07 1.1739e-32
3.9479e-07 3.0042e-32
3.9545e-07 4.8493e-32
3.9611e-07 1.5572e-31
3.9677e-07 4.2674e-31
3.9743e-07 8.461e-31
3.9809e-07 3.7558e-31
3.9876e-07 4.5373e-31
3.9942e-07 4.5802e-31
4.0009e-07 3.8728e-31
4.0076e-07 2.6875e-31
4.0143e-07 1.646e-31
4.021e-07 1.3765e-31
4.0277e-07 8.5997e-32
4.0344e-07 6.0534e-32
4.0411e-07 4.8852e-32
4.0479e-07 3.5772e-32
4.0546e-07 2.1304e-32
4.0614e-07 1.0043e-32
4.0682e-07 4.4323e-33
4.075e-07 5.0679e-33
4.0818e-07 6.3706e-33
4.0886e-07 8.115e-33
4.0954e-07 2.0756e-35
4.1023e-07 6.9576e-36
4.1091e-07 1.7864e-33
4.116e-07 2.1382e-33
4.1228e-07 1.7278e-32
4.1297e-07 3.5505e-32
4.1366e-07 3.1825e-32
4.1435e-07 6.2824e-32
4.1504e-07 1.9414e-31
4.1574e-07 2.7374e-31
4.1643e-07 5.3352e-31
4.1712e-07 3.6531e-31
4.1782e-07 2.1578e-31
4.1852e-07 2.3641e-31
4.1922e-07 1.9923e-31
4.1992e-07 1.2298e-31
4.2062e-07 6.8514e-32
4.2132e-07 4.1597e-32
4.2202e-07 2.4736e-32
4.2273e-07 1.0978e-32
4.2343e-07 5.0985e-33
4.2414e-07 2.3045e-33
4.2485e-07 4.0844e-32
4.2556e-07 7.5312e-32
4.2627e-07 1.4814e-31
4.2698e-07 6.0088e-32
4.2769e-07 8.1313e-32
4.2841e-07 6.1383e-32
4.2912e-07 7.2129e-32
4.2984e-07 3.8777e-32
4.3055e-07 2.2856e-32
4.3127e-07 6.9196e-33
4.3199e-07 5.3441e-33
4.3271e-07 1.976e-33
4.3344e-07 2.7436e-34
4.3416e-07 3.3224e-36
4.3488e-07 1.8536e-35
4.3561e-07 5.9701e-33
4.3634e-07 2.8048e-33
4.3707e-07 5.7653e-35
4.3779e-07 1.1378e-32
4.3853e-07 4.0552e-32
4.3926e-07 1.309e-31
4.3999e-07 2.1114e-31
4.4073e-07 3.2223e-31
4.4146e-07 9.5979e-31
4.422e-07 1.7561e-30
4.4294e-07 3.4702e-30
4.4368e-07 1.3188e-30
4.4442e-07 1.6204e-30
4.4516e-07 1.8455e-30
4.459e-07 1.7832e-30
4.4664e-07 1.1166e-30
4.4739e-07 8.4501e-31
4.4814e-07 4.8754e-31
4.4889e-07 3.2649e-31
4.4963e-07 1.5501e-31
4.5038e-07 9.0746e-32
4.5114e-07 4.7769e-32
4.5189e-07 2.0009e-32
4.5264e-07 5.4304e-32
4.534e-07 5.9842e-32
4.5416e-07 3.7282e-32
4.5491e-07 6.3739e-32
4.5567e-07 6.1622e-32
4.5643e-07 8.2538e-32
4.572e-07 6.89e-32
4.5796e-07 4.4371e-32
4.5872e-07 4.7824e-32
4.5949e-07 3.3423e-32
4.6026e-07 2.656e-32
4.6102e-07 9.9793e-33
4.6179e-07 2.577e-33
4.6256e-07 5.6543e-33
4.6334e-07 1.2919e-33
4.6411e-07 9.7208e-33
4.6489e-07 8.0989e-33
4.6566e-07 3.657e-32
4.6644e-07 2.0965e-31
4.6722e-07 5.7991e-31
4.68e-07 4.6054e-31
4.6878e-07 7.7164e-31
4.6956e-07 1.391e-30
4.7034e-07 1.0044e-30
4.7113e-07 8.9795e-31
4.7192e-07 6.4332e-31
4.727e-07 7.9258e-31
4.7349e-07 6.5096e-31
4.7428e-07 4.3417e-31
4.7507e-07 2.6139e-31
4.7587e-07 1.7283e-31
4.7666e-07 1.1807e-31
4.7746e-07 5.8062e-32
4.7825e-07 2.8423e-32
4.7905e-07 1.1071e-32
4.7985e-07 5.934e-34
4.8065e-07 8.777e-35
4.8146e-07 4.2713e-33
4.8226e-07 1.6647e-32
4.8306e-07 6.1883e-32
4.8387e-07 2.3528e-31
4.8468e-07 9.0788e-31
4.8549e-07 1.2571e-30
4.863e-07 6.9151e-31
4.8711e-07 9.1746e-31
4.8792e-07 8.7421e-31
4.8874e-07 8.2136e-31
4.8955e-07 8.0388e-31
4.9037e-07 5.0929e-31
4.9119e-07 4.3593e-31
4.9201e-07 2.8759e-31
4.9283e-07 2.1655e-31
4.9365e-07 1.0914e-31
4.9448e-07 6.6796e-32
4.953e-07 3.4708e-32
4.9613e-07 2.5654e-32
4.9696e-07 3.2947e-32
4.9779e-07 1.0854e-31
4.9862e-07 3.5761e-31
4.9945e-07 6.4238e-31
5.0028e-07 1.1081e-30
5.0112e-07 1.9263e-30
5.0195e-07 3.7954e-30
5.0279e-07 5.7771e-30
5.0363e-07 1.6528e-29
5.0447e-07 1.4372e-29
5.0531e-07 6.8194e-30
5.0616e-07 9.3081e-30
5.07e-07 9.8541e-30
5.0785e-07 9.8132e-30
5.087e-07 6.8011e-30
5.0954e-07 5.484e-30
5.104e-07 3.469e-30
5.1125e-07 2.263e-30
5.121e-07 1.4387e-30
5.1296e-07 8.6505e-31
5.1381e-07 4.2461e-31
5.1467e-07 2.5465e-31
5.1553e-07 1.9453e-31
5.1639e-07 1.4745e-31
5.1725e-07 1.1335e-31
5.1811e-07 9.0892e-32
5.1898e-07 7.8846e-32
5.1984e-07 6.2409e-32
5.2071e-07 4.7105e-32
5.2158e-07 6.0397e-32
5.2245e-07 9.8729e-32
5.2332e-07 4.5419e-31
5.242e-07 1.4435e-30
5.2507e-07 1.2199e-30
5.2595e-07 3.9569e-31
5.2683e-07 9.8685e-31
5.2771e-07 6.9392e-31
5.2859e-07 6.5705e-31
5.2947e-07 6.9952e-31
5.3035e-07 7.4063e-31
5.3124e-07 5.4677e-31
5.3213e-07 4.1031e-31
5.3301e-07 2.9441e-31
5.339e-07 1.9485e-31
5.3479e-07 2.3692e-31
5.3569e-07 3.2032e-31
5.3658e-07 4.569e-31
5.3748e-07 6.0199e-31
5.3837e-07 1.0046e-30
5.3927e-07 1.6486e-30
5.4017e-07 3.3691e-30
5.4107e-07 7.6254e-30
5.4198e-07 6.991e-30
5.4288e-07 4.5873e-30
5.4379e-07 6.3916e-30
5.447e-07 4.5745e-30
5.4561e-07 5.6632e-30
5.4652e-07 7.0276e-30
5.4743e-07 3.6923e-30
5.4834e-07 2.5092e-30
5.4926e-07 2.2393e-30
5.5017e-07 1.9127e-30
5.5109e-07 1.301e-30
5.5201e-07 6.901e-31
5.5293e-07 4.3074e-31
5.5386e-07 2.5368e-31
5.5478e-07 2.0691e-31
5.5571e-07 1.071e-31
5.5663e-07 3.46e-32
5.5756e-07 8.4709e-32
5.5849e-07 1.6775e-31
5.5943e-07 2.2754e-31
5.6036e-07 3.5712e-31
5.613e-07 3.9224e-31
5.6223e-07 4.7456e-31
5.6317e-07 4.2396e-31
5.6411e-07 4.1052e-31
5.6505e-07 5.0414e-31
5.66e-07 6.8801e-31
5.6694e-07 1.7544e-30
5.6789e-07 5.8438e-30
5.6883e-07 1.4923e-29
5.6978e-07 1.3772e-29
5.7074e-07 5.9375e-30
5.7169e-07 7.4863e-30
5.7264e-07 9.6718e-30
5.736e-07 8.0126e-30
5.7456e-07 9.504e-30
5.7551e-07 6.9061e-30
5.7647e-07 5.7674e-30
5.7744e-07 5.8009e-30
5.784e-07 3.2665e-30
5.7937e-07 2.5034e-30
5.8033e-07 1.9387e-30
5.813e-07 1.9119e-30
5.8227e-07 2.1657e-30
5.8324e-07 2.5583e-30
5.8422e-07 3.0327e-30
5.8519e-07 3.574e-30
5.8617e-07 6.7165e-30
5.8715e-07 1.3807e-29
5.8813e-07 4.1949e-29
5.8911e-07 7.4697e-29
5.9009e-07 7.3832e-29
5.9108e-07 5.4509e-29
5.9206e-07 7.3088e-29
5.9305e-07 4.254e-29
5.9404e-07 5.5981e-29
5.9503e-07 6.7574e-29
5.9603e-07 3.9096e-29
5.9702e-07 4.0416e-29
5.9802e-07 2.9088e-29
5.9902e-07 2.2617e-29
6.0002e-07 1.5669e-29
6.0102e-07 8.4203e-30
6.0202e-07 6.0283e-30
6.0303e-07 3.5625e-30
6.0403e-07 1.7602e-30
6.0504e-07 1.1215e-30
6.0605e-07 7.0393e-31
6.0706e-07 3.7194e-31
6.0808e-07 2.6131e-31
6.0909e-07 1.7757e-31
6.1011e-07 1.1591e-31
6.1113e-07 7.4041e-32
6.1215e-07 6.0951e-32
6.1317e-07 4.0152e-32
6.1419e-07 3.891e-32
6.1522e-07 4.9204e-32
6.1624e-07 5.0093e-32
6.1727e-07 6.061e-32
6.183e-07 9.7233e-32
6.1933e-07 1.0456e-31
6.2037e-07 1.2035e-31
6.214e-07 1.3329e-31
6.2244e-07 1.7716e-31
6.2348e-07 2.7267e-31
6.2452e-07 5.7249e-31
6.2556e-07 1.7136e-30
6.2661e-07 5.1811e-30
6.2765e-07 1.0654e-29
6.287e-07 1.1131e-29
6.2975e-07 7.2554e-30
6.308e-07 2.4413e-30
6.3185e-07 9.5803e-30
6.3291e-07 7.2223e-30
6.3397e-07 5.2508e-30
6.3502e-07 6.0946e-30
6.3608e-07 4.8968e-30
6.3715e-07 4.8766e-30
6.3821e-07 3.8252e-30
6.3927e-07 4.0972e-30
6.4034e-07 4.0219e-30
6.4141e-07 4.088e-30
6.4248e-07 4.063e-30
6.4355e-07 5.4451e-30
6.4463e-07 7.8379e-30
6.457e-07 1.7119e-29
6.4678e-07 3.9793e-29
6.4786e-07 6.7476e-29
6.4894e-07 5.3058e-29
6.5003e-07 2.915e-29
6.5111e-07 3.3581e-29
6.522e-07 5.0912e-29
6.5329e-07 2.2093e-29
6.5438e-07 2.833e-29
6.5547e-07 3.6656e-29
6.5656e-07 2.7654e-29
6.5766e-07 2.5765e-29
6.5876e-07 1.5357e-29
6.5986e-07 9.6265e-30
6.6096e-07 5.9377e-30
6.6206e-07 3.2888e-30
6.6317e-07 3.0112e-30
6.6427e-07 2.7367e-30
6.6538e-07 1.9319e-30
6.6649e-07 1.5859e-30
6.676e-07 8.8796e-31
6.6872e-07 6.473e-31
6.6983e-07 3.3216e-31
6.7095e-07 1.9579e-31
6.7207e-07 1.3003e-31
6.7319e-07 8.4916e-32
6.7432e-07 8.5215e-32
6.7544e-07 8.7891e-32
6.7657e-07 1.7597e-31
6.777e-07 2.4722e-31
6.7883e-07 4.1431e-31
6.7996e-07 6.9681e-31
6.811e-07 9.75e-31
6.8224e-07 1.7463e-30
6.8338e-07 1.8755e-30
6.8452e-07 2.6888e-30
6.8566e-07 2.4631e-30
6.868e-07 4.0213e-30
6.8795e-07 2.3531e-30
6.891e-07 2.5292e-30
6.9025e-07 5.1186e-30
6.914e-07 1.3738e-29
6.9255e-07 6.08e-29
6.9371e-07 1.1811e-28
6.9487e-07 1.2855e-28
6.9603e-07 9.7258e-29
6.9719e-07 3.0275e-29
6.9835e-07 5.0452e-29
6.9952e-07 9.1851e-29
7.0069e-07 8.3867e-29
7.0186e-07 8.384e-29
7.0303e-07 7.002e-29
7.042e-07 5.0834e-29
7.0538e-07 5.4456e-29
7.0655e-07 4.2757e-29
7.0773e-07 3.5681e-29
7.0891e-07 2.9777e-29
7.101e-07 2.9223e-29
7.1128e-07 2.3577e-29
7.1247e-07 2.3187e-29
7.1366e-07 2.6355e-29
7.1485e-07 4.157e-29
7.1604e-07 8.2288e-29
7.1724e-07 3.3255e-28
7.1844e-07 4.6508e-28
7.1964e-07 4.7812e-28
7.2084e-07 3.2283e-28
7.2204e-07 1.1549e-28
7.2324e-07 2.5917e-28
7.2445e-07 3.6976e-28
7.2566e-07 3.2901e-28
7.2687e-07 2.954e-28
7.2809e-07 2.9697e-28
7.293e-07 2.7604e-28
7.3052e-07 2.6847e-28
7.3174e-07 2.1545e-28
7.3296e-07 1.1995e-28
7.3418e-07 7.8465e-29
7.3541e-07 8.0121e-29
7.3664e-07 8.3535e-29
7.3787e-07 5.2996e-29
7.391e-07 4.7475e-29
7.4033e-07 2.751e-29
7.4157e-07 1.8292e-29
7.428e-07 1.2425e-29
7.4404e-07 5.8648e-30
7.4529e-07 4.1986e-30
7.4653e-07 2.807e-30
7.4778e-07 2.0237e-30
7.4902e-07 1.3371e-30
7.5027e-07 1.3231e-30
7.5153e-07 9.9259e-31
7.5278e-07 5.5925e-31
7.5404e-07 5.223e-31
7.553e-07 3.7668e-31
7.5656e-07 2.7997e-31
7.5782e-07 4.4842e-31
7.5908e-07 3.7222e-31
7.6035e-07 2.4575e-31
7.6162e-07 2.1411e-31
7.6289e-07 9.7571e-32
7.6417e-07 8.1695e-32
7.6544e-07 4.2175e-32
7.6672e-07 3.0929e-32
7.68e-07 2.2726e-32
7.6928e-07 3.1496e-32
7.7056e-07 4.7002e-32
7.7185e-07 9.4353e-32
7.7314e-07 1.373e-31
7.7443e-07 1.7288e-31
7.7572e-07 2.509e-31
7.7702e-07 2.2744e-31
7.7831e-07 3.7269e-31
7.7961e-07 6.5944e-31
7.8091e-07 7.2667e-31
7.8222e-07 1.2619e-30
7.8352e-07 2.632e-30
7.8483e-07 6.0589e-30
7.8614e-07 1.2523e-29
7.8745e-07 2.7189e-29
7.8877e-07 4.1177e-29
7.9008e-07 5.7386e-29
7.914e-07 4.4745e-29
7.9272e-07 4.1357e-29
7.9405e-07 1.5115e-29
7.9537e-07 3.134e-29
7.967e-07 6.1511e-29
7.9803e-07 3.1403e-29
7.9936e-07 3.6789e-29
8.007e-07 5.6303e-29
8.0203e-07 5.4492e-29
8.0337e-07 5.3787e-29
8.0471e-07 4.2604e-29
8.0606e-07 2.4346e-29
8.074e-07 2.5917e-29
8.0875e-07 3.8703e-29
8.101e-07 5.7093e-29
8.1145e-07 9.8574e-29
8.1281e-07 1.7642e-28
8.1416e-07 3.1747e-28
8.1552e-07 4.2096e-28
8.1688e-07 4.5583e-28
8.1825e-07 3.8411e-28
8.1961e-07 3.0384e-28
8.2098e-07 1.3911e-28
8.2235e-07 3.7331e-28
8.2372e-07 4.6593e-28
8.251e-07 1.4917e-28
8.2647e-07 1.7067e-28
8.2785e-07 2.783e-28
8.2924e-07 2.6375e-28
8.3062e-07 2.1451e-28
8.3201e-07 2.1923e-28
8.334e-07 1.6797e-28
8.3479e-07 1.0756e-28
8.3618e-07 9.9652e-29
8.3758e-07 7.4716e-29
8.3897e-07 4.7647e-29
8.4037e-07 3.8959e-29
8.4178e-07 3.5626e-29
8.4318e-07 2.2529e-29
8.4459e-07 1.868e-29
8.46e-07 1.0291e-29
8.4741e-07 7.8554e-30
8.4883e-07 1.108e-29
8.5024e-07 1.0909e-29
8.5166e-07 1.7198e-29
8.5308e-07 1.0321e-29
8.5451e-07 1.0807e-29
8.5593e-07 7.1277e-30
8.5736e-07 6.6371e-30
8.5879e-07 3.895e-30
8.6023e-07 2.5853e-30
8.6166e-07 1.5924e-30
8.631e-07 1.1464e-30
8.6454e-07 6.2619e-31
8.6598e-07 3.6305e-31
8.6743e-07 3.3175e-31
8.6888e-07 3.161e-31
8.7033e-07 3.2834e-31
8.7178e-07 3.4705e-31
8.7324e-07 5.2732e-31
8.7469e-07 9.0332e-31
8.7615e-07 1.4764e-30
8.7762e-07 2.49e-30
8.7908e-07 3.6017e-30
8.8055e-07 4.8017e-30
8.8202e-07 7.0596e-30
8.8349e-07 6.7149e-30
8.8496e-07 7.9176e-30
8.8644e-07 1.4431e-29
8.8792e-07 1.5195e-29
8.894e-07 1.1936e-29
8.9089e-07 1.8748e-29
8.9237e-07 5.1684e-29
8.9386e-07 1.2657e-28
8.9536e-07 2.754e-28
8.9685e-07 4.4184e-28
8.9835e-07 5.2126e-28
8.9985e-07 5.7673e-28
9.0135e-07 5.1048e-28
9.0285e-07 3.8023e-28
9.0436e-07 1.7173e-28
9.0587e-07 2.2611e-28
9.0738e-07 4.8323e-28
9.089e-07 5.0827e-28
9.1041e-07 4.7684e-28
9.1193e-07 4.1086e-28
9.1346e-07 6.005e-28
9.1498e-07 5.1094e-28
9.1651e-07 5.0843e-28
9.1804e-07 5.1766e-28
9.1957e-07 2.9023e-28
9.211e-07 2.4308e-28
9.2264e-07 2.3642e-28
9.2418e-07 3.1386e-28
9.2572e-07 2.7715e-28
9.2727e-07 3.7321e-28
9.2882e-07 8.0967e-28
9.3037e-07 1.1971e-27
9.3192e-07 1.8652e-27
9.3348e-07 2.4229e-27
9.3503e-07 2.3629e-27
9.366e-07 2.1517e-27
9.3816e-07 2.0672e-27
9.3972e-07 9.7577e-28
9.4129e-07 1.1909e-27
9.4286e-07 1.4906e-27
9.4444e-07 1.7619e-27
9.4601e-07 1.6669e-27
9.4759e-07 1.5499e-27
9.4918e-07 1.4696e-27
9.5076e-07 1.3461e-27
9.5235e-07 1.5983e-27
9.5394e-07 1.204e-27
9.5553e-07 1.4088e-27
9.5712e-07 1.2296e-27
9.5872e-07 1.2213e-27
9.6032e-07 1.1453e-27
9.6192e-07 9.9859e-28
9.6353e-07 8.6424e-28
9.6514e-07 8.1385e-28
9.6675e-07 7.0571e-28
9.6836e-07 3.5064e-28
9.6998e-07 2.7368e-28
9.716e-07 2.6744e-28
9.7322e-07 4.0647e-28
9.7484e-07 4.6552e-28
9.7647e-07 4.5994e-28
9.781e-07 3.2133e-28
9.7973e-07 3.6678e-28
9.8137e-07 1.9853e-28
9.8301e-07 1.9565e-28
9.8465e-07 1.4394e-28
9.8629e-07 6.9618e-29
9.8794e-07 6.4e-29
9.8959e-07 4.5385e-29
9.9124e-07 3.2605e-29
9.9289e-07 3.8585e-29
9.9455e-07 1.4465e-29
9.9621e-07 1.2245e-29
9.9787e-07 1.2906e-29
9.9954e-07 1.5408e-29
1.0012e-06 2.3294e-29
1.0029e-06 2.6007e-29
1.0046e-06 1.6304e-29
1.0062e-06 1.1583e-29
1.0079e-06 1.7249e-29
1.0096e-06 3.0099e-29
1.0113e-06 1.2621e-29
1.013e-06 9.5356e-30
1.0147e-06 9.6424e-30
1.0163e-06 8.1477e-30
1.018e-06 8.2126e-30
1.0197e-06 1.2554e-29
1.0214e-06 8.0151e-30
1.0232e-06 1.6219e-29
1.0249e-06 1.056e-29
1.0266e-06 7.8281e-30
1.0283e-06 9.0176e-30
1.03e-06 3.6512e-30