File: material/gas/smooth_input/h2o_uv_vis_T0_P0.txt
2.8e-07 -0
2.8047e-07 -0
2.8094e-07 -0
2.8141e-07 -0
2.8188e-07 -0
2.8235e-07 -0
2.8282e-07 -0
2.8329e-07 -0
2.8377e-07 -0
2.8424e-07 -0
2.8472e-07 -0
2.8519e-07 -0
2.8567e-07 -0
2.8615e-07 -0
2.8663e-07 -0
2.8711e-07 -0
2.8759e-07 -0
2.8807e-07 -0
2.8855e-07 -0
2.8903e-07 -0
2.8951e-07 -0
2.9e-07 -0
2.9048e-07 -0
2.9097e-07 -0
2.9145e-07 -0
2.9194e-07 -0
2.9243e-07 -0
2.9292e-07 -0
2.9341e-07 -0
2.939e-07 -0
2.9439e-07 -0
2.9488e-07 -0
2.9538e-07 -0
2.9587e-07 -0
2.9637e-07 -0
2.9686e-07 -0
2.9736e-07 -0
2.9785e-07 -0
2.9835e-07 -0
2.9885e-07 -0
2.9935e-07 -0
2.9985e-07 -0
3.0035e-07 -0
3.0085e-07 -0
3.0136e-07 -0
3.0186e-07 -0
3.0237e-07 -0
3.0287e-07 -0
3.0338e-07 -0
3.0389e-07 -0
3.0439e-07 -0
3.049e-07 -0
3.0541e-07 -0
3.0592e-07 -0
3.0643e-07 -0
3.0695e-07 -0
3.0746e-07 -0
3.0797e-07 -0
3.0849e-07 -0
3.0901e-07 -0
3.0952e-07 -0
3.1004e-07 -0
3.1056e-07 -0
3.1108e-07 -0
3.116e-07 -0
3.1212e-07 -0
3.1264e-07 -0
3.1316e-07 -0
3.1369e-07 -0
3.1421e-07 -0
3.1474e-07 -0
3.1526e-07 -0
3.1579e-07 -0
3.1632e-07 -0
3.1685e-07 -0
3.1738e-07 -0
3.1791e-07 -0
3.1844e-07 -0
3.1897e-07 -0
3.195e-07 -0
3.2004e-07 -0
3.2057e-07 -0
3.2111e-07 -0
3.2165e-07 -0
3.2218e-07 -0
3.2272e-07 -0
3.2326e-07 -0
3.238e-07 -0
3.2435e-07 -0
3.2489e-07 -0
3.2543e-07 -0
3.2597e-07 -0
3.2652e-07 -0
3.2707e-07 -0
3.2761e-07 -0
3.2816e-07 -0
3.2871e-07 -0
3.2926e-07 -0
3.2981e-07 -0
3.3036e-07 -0
3.3091e-07 -0
3.3147e-07 -0
3.3202e-07 -0
3.3258e-07 -0
3.3313e-07 -0
3.3369e-07 -0
3.3425e-07 -0
3.3481e-07 -0
3.3537e-07 -0
3.3593e-07 -0
3.3649e-07 -0
3.3705e-07 -0
3.3761e-07 -0
3.3818e-07 -0
3.3874e-07 -0
3.3931e-07 -0
3.3988e-07 -0
3.4045e-07 -0
3.4102e-07 -0
3.4159e-07 -0
3.4216e-07 -0
3.4273e-07 -0
3.433e-07 -0
3.4388e-07 -0
3.4445e-07 -0
3.4503e-07 -0
3.456e-07 -0
3.4618e-07 -0
3.4676e-07 -0
3.4734e-07 -0
3.4792e-07 -0
3.485e-07 -0
3.4909e-07 -0
3.4967e-07 -0
3.5025e-07 -0
3.5084e-07 -0
3.5143e-07 -0
3.5201e-07 -0
3.526e-07 -0
3.5319e-07 -0
3.5378e-07 -0
3.5437e-07 -0
3.5497e-07 -0
3.5556e-07 -0
3.5615e-07 -0
3.5675e-07 -0
3.5735e-07 -0
3.5794e-07 -0
3.5854e-07 -0
3.5914e-07 -0
3.5974e-07 -0
3.6034e-07 -0
3.6095e-07 -0
3.6155e-07 -0
3.6215e-07 -0
3.6276e-07 -0
3.6337e-07 -0
3.6397e-07 -0
3.6458e-07 -0
3.6519e-07 -0
3.658e-07 -0
3.6642e-07 -0
3.6703e-07 -0
3.6764e-07 -0
3.6826e-07 -0
3.6887e-07 -0
3.6949e-07 -0
3.7011e-07 -0
3.7073e-07 -0
3.7135e-07 -0
3.7197e-07 -0
3.7259e-07 -0
3.7321e-07 -0
3.7384e-07 -0
3.7446e-07 -0
3.7509e-07 -0
3.7571e-07 -0
3.7634e-07 -0
3.7697e-07 -0
3.776e-07 -0
3.7823e-07 -0
3.7887e-07 -0
3.795e-07 -0
3.8013e-07 -0
3.8077e-07 -0
3.8141e-07 -0
3.8204e-07 -0
3.8268e-07 -0
3.8332e-07 -0
3.8396e-07 -0
3.846e-07 -0
3.8525e-07 2.259e-38
3.8589e-07 2.3589e-37
3.8654e-07 1.2268e-36
3.8718e-07 4.4679e-36
3.8783e-07 6.0055e-35
3.8848e-07 3.8739e-33
3.8913e-07 2.0191e-32
3.8978e-07 4.7065e-32
3.9043e-07 8.0738e-32
3.9108e-07 8.7921e-32
3.9174e-07 7.3593e-32
3.9239e-07 6.373e-32
3.9305e-07 6.06e-32
3.9371e-07 3.699e-32
3.9436e-07 2.3485e-32
3.9502e-07 3.7127e-32
3.9568e-07 1.0203e-31
3.9635e-07 3.0174e-31
3.9701e-07 5.3297e-31
3.9767e-07 5.8815e-31
3.9834e-07 4.6764e-31
3.99e-07 4.4753e-31
3.9967e-07 4.3299e-31
4.0034e-07 3.3906e-31
4.0101e-07 2.3085e-31
4.0168e-07 1.5962e-31
4.0235e-07 1.1467e-31
4.0302e-07 7.9843e-32
4.037e-07 5.7857e-32
4.0437e-07 4.6279e-32
4.0505e-07 2.9863e-32
4.0573e-07 1.6529e-32
4.064e-07 9.6915e-33
4.0708e-07 5.1674e-33
4.0776e-07 5.4713e-33
4.0845e-07 7.7043e-33
4.0913e-07 4.2325e-33
4.0981e-07 2.4755e-34
4.105e-07 8.216e-34
4.1118e-07 2.6167e-33
4.1187e-07 9.9034e-33
4.1256e-07 2.2105e-32
4.1325e-07 3.3502e-32
4.1394e-07 5.1881e-32
4.1463e-07 1.1764e-31
4.1533e-07 2.2546e-31
4.1602e-07 3.7787e-31
4.1672e-07 4.389e-31
4.1741e-07 3.2127e-31
4.1811e-07 2.3488e-31
4.1881e-07 2.1837e-31
4.1951e-07 1.6686e-31
4.2021e-07 1.0301e-31
4.2092e-07 5.835e-32
4.2162e-07 3.525e-32
4.2232e-07 1.9864e-32
4.2303e-07 9.6137e-33
4.2374e-07 6.7639e-33
4.2445e-07 2.0772e-32
4.2516e-07 6.0173e-32
4.2587e-07 9.6856e-32
4.2658e-07 1.0091e-31
4.2729e-07 7.8835e-32
4.2801e-07 6.9404e-32
4.2872e-07 6.5618e-32
4.2944e-07 4.7906e-32
4.3016e-07 3.5355e-32
4.3088e-07 1.5928e-32
4.316e-07 6.7837e-33
4.3232e-07 3.4847e-33
4.3304e-07 1.3969e-33
4.3377e-07 7.3972e-35
4.3449e-07 1.5329e-34
4.3522e-07 2.5921e-33
4.3595e-07 3.8214e-33
4.3667e-07 3.1645e-33
4.374e-07 5.6e-33
4.3814e-07 3.2051e-32
4.3887e-07 8.7283e-32
4.396e-07 1.6534e-31
4.4034e-07 3.0575e-31
4.4107e-07 6.1583e-31
4.4181e-07 1.4518e-30
4.4255e-07 2.387e-30
4.4329e-07 2.2601e-30
4.4403e-07 1.6732e-30
4.4477e-07 1.7151e-30
4.4552e-07 1.7422e-30
4.4626e-07 1.4275e-30
4.4701e-07 1.0116e-30
4.4776e-07 6.847e-31
4.485e-07 4.2927e-31
4.4925e-07 2.4714e-31
4.5001e-07 1.32e-31
4.5076e-07 7.0087e-32
4.5151e-07 3.8154e-32
4.5227e-07 4.0271e-32
4.5302e-07 5.3569e-32
4.5378e-07 5.0803e-32
4.5454e-07 5.5004e-32
4.553e-07 6.0934e-32
4.5606e-07 7.204e-32
4.5682e-07 7.5402e-32
4.5759e-07 5.7612e-32
4.5835e-07 4.6437e-32
4.5912e-07 4.1506e-32
4.5989e-07 2.9747e-32
4.6065e-07 1.7251e-32
4.6142e-07 8.1067e-33
4.622e-07 4.1334e-33
4.6297e-07 3.9e-33
4.6374e-07 5.9763e-33
4.6452e-07 9.7459e-33
4.653e-07 3.6357e-32
4.6607e-07 1.491e-31
4.6685e-07 3.9323e-31
4.6763e-07 5.0944e-31
4.6842e-07 7.0542e-31
4.692e-07 1.0233e-30
4.6998e-07 1.1963e-30
4.7077e-07 9.8564e-31
4.7156e-07 7.7733e-31
4.7234e-07 7.4526e-31
4.7313e-07 7.0121e-31
4.7393e-07 5.2205e-31
4.7472e-07 3.5366e-31
4.7551e-07 2.2521e-31
4.7631e-07 1.4256e-31
4.771e-07 8.6504e-32
4.779e-07 4.5162e-32
4.787e-07 1.9386e-32
4.795e-07 5.9495e-33
4.803e-07 6.0383e-34
4.8111e-07 3.0491e-33
4.8191e-07 1.2953e-32
4.8272e-07 5.2228e-32
4.8352e-07 2.0816e-31
4.8433e-07 6.2789e-31
4.8514e-07 1.0156e-30
4.8595e-07 9.664e-31
4.8676e-07 8.5953e-31
4.8758e-07 8.5019e-31
4.8839e-07 8.5795e-31
4.8921e-07 7.9916e-31
4.9003e-07 6.4649e-31
4.9085e-07 4.6357e-31
4.9167e-07 3.5359e-31
4.9249e-07 2.486e-31
4.9331e-07 1.5811e-31
4.9414e-07 8.9265e-32
4.9496e-07 5.0426e-32
4.9579e-07 3.0643e-32
4.9662e-07 3.3261e-32
4.9745e-07 1.0028e-31
4.9828e-07 2.6582e-31
4.9912e-07 5.4904e-31
4.9995e-07 9.3706e-31
5.0079e-07 1.7634e-30
5.0162e-07 3.2084e-30
5.0246e-07 6.018e-30
5.033e-07 1.1348e-29
5.0415e-07 1.3726e-29
5.0499e-07 1.0628e-29
5.0583e-07 8.9419e-30
5.0668e-07 9.5129e-30
5.0753e-07 9.307e-30
5.0837e-07 7.9791e-30
5.0922e-07 5.9291e-30
5.1008e-07 4.2206e-30
5.1093e-07 2.8026e-30
5.1178e-07 1.732e-30
5.1264e-07 1.1822e-30
5.135e-07 6.3586e-31
5.1435e-07 3.4289e-31
5.1521e-07 2.1871e-31
5.1608e-07 1.6491e-31
5.1694e-07 1.3083e-31
5.178e-07 1.0026e-31
5.1867e-07 8.2859e-32
5.1954e-07 6.8478e-32
5.204e-07 5.6421e-32
5.2127e-07 5.9604e-32
5.2215e-07 1.2183e-31
5.2302e-07 4.2284e-31
5.2389e-07 9.8204e-31
5.2477e-07 1.1733e-30
5.2565e-07 8.5447e-31
5.2653e-07 7.2838e-31
5.2741e-07 7.7967e-31
5.2829e-07 6.8609e-31
5.2917e-07 6.9851e-31
5.3006e-07 7.115e-31
5.3094e-07 6.052e-31
5.3183e-07 4.6702e-31
5.3272e-07 3.3782e-31
5.3361e-07 2.4832e-31
5.345e-07 2.2151e-31
5.354e-07 2.931e-31
5.3629e-07 3.9887e-31
5.3719e-07 5.7571e-31
5.3809e-07 8.9466e-31
5.3899e-07 1.5693e-30
5.3989e-07 3.2407e-30
5.4079e-07 5.8232e-30
5.4169e-07 6.7637e-30
5.426e-07 6.0052e-30
5.4351e-07 5.4677e-30
5.4442e-07 5.2929e-30
5.4533e-07 5.7067e-30
5.4624e-07 6.078e-30
5.4715e-07 4.846e-30
5.4807e-07 3.139e-30
5.4898e-07 2.3642e-30
5.499e-07 1.9831e-30
5.5082e-07 1.4669e-30
5.5174e-07 8.9099e-31
5.5266e-07 5.399e-31
5.5359e-07 3.2451e-31
5.5451e-07 2.1269e-31
5.5544e-07 1.3073e-31
5.5637e-07 7.2761e-32
5.573e-07 7.7281e-32
5.5823e-07 1.376e-31
5.5917e-07 2.2289e-31
5.601e-07 3.1703e-31
5.6104e-07 3.8787e-31
5.6198e-07 4.3891e-31
5.6291e-07 4.5017e-31
5.6386e-07 4.2361e-31
5.648e-07 4.7103e-31
5.6574e-07 7.511e-31
5.6669e-07 1.8327e-30
5.6764e-07 5.6972e-30
5.6859e-07 1.1338e-29
5.6954e-07 1.2691e-29
5.7049e-07 9.1821e-30
5.7144e-07 7.4897e-30
5.724e-07 8.6495e-30
5.7336e-07 8.9391e-30
5.7431e-07 8.4512e-30
5.7527e-07 7.4864e-30
5.7624e-07 6.4304e-30
5.772e-07 5.403e-30
5.7816e-07 4.0277e-30
5.7913e-07 2.723e-30
5.801e-07 2.1462e-30
5.8107e-07 2.0053e-30
5.8204e-07 2.1587e-30
5.8301e-07 2.5131e-30
5.8399e-07 2.9066e-30
5.8497e-07 3.9899e-30
5.8594e-07 6.6346e-30
5.8692e-07 1.5622e-29
5.8791e-07 3.6947e-29
5.8889e-07 6.2511e-29
5.8987e-07 7.1652e-29
5.9086e-07 6.3846e-29
5.9185e-07 6.1669e-29
5.9284e-07 5.4465e-29
5.9383e-07 5.4651e-29
5.9482e-07 5.8003e-29
5.9582e-07 4.8922e-29
5.9681e-07 3.8096e-29
5.9781e-07 3.2242e-29
5.9881e-07 2.4076e-29
5.9981e-07 1.656e-29
6.0081e-07 1.1049e-29
6.0182e-07 6.8427e-30
6.0282e-07 4.1242e-30
6.0383e-07 2.2689e-30
6.0484e-07 1.3384e-30
6.0585e-07 8.1622e-31
6.0687e-07 4.5932e-31
6.0788e-07 2.9985e-31
6.089e-07 1.955e-31
6.0992e-07 1.3617e-31
6.1094e-07 8.722e-32
6.1196e-07 6.2469e-32
6.1298e-07 4.688e-32
6.14e-07 4.1599e-32
6.1503e-07 4.5637e-32
6.1606e-07 5.1121e-32
6.1709e-07 6.4947e-32
6.1812e-07 8.5273e-32
6.1916e-07 1.0649e-31
6.2019e-07 1.1721e-31
6.2123e-07 1.3747e-31
6.2227e-07 1.7529e-31
6.2331e-07 2.8802e-31
6.2435e-07 6.404e-31
6.2539e-07 1.8771e-30
6.2644e-07 5.0543e-30
6.2749e-07 8.9529e-30
6.2854e-07 1.0274e-29
6.2959e-07 7.6059e-30
6.3064e-07 5.4401e-30
6.3169e-07 6.8504e-30
6.3275e-07 7.4716e-30
6.3381e-07 6.189e-30
6.3487e-07 5.6826e-30
6.3593e-07 5.3026e-30
6.3699e-07 4.6955e-30
6.3806e-07 4.1796e-30
6.3912e-07 4.0232e-30
6.4019e-07 4.0515e-30
6.4126e-07 4.1525e-30
6.4234e-07 4.3628e-30
6.4341e-07 5.4664e-30
6.4449e-07 8.72e-30
6.4556e-07 1.768e-29
6.4664e-07 3.8139e-29
6.4772e-07 5.619e-29
6.4881e-07 5.1167e-29
6.4989e-07 3.6981e-29
6.5098e-07 3.6066e-29
6.5207e-07 3.7529e-29
6.5316e-07 3.1647e-29
6.5425e-07 2.8316e-29
6.5534e-07 3.2605e-29
6.5644e-07 3.0072e-29
6.5754e-07 2.4085e-29
6.5864e-07 1.7247e-29
6.5974e-07 1.0478e-29
6.6084e-07 6.6344e-30
6.6195e-07 3.964e-30
6.6305e-07 3.0988e-30
6.6416e-07 2.6376e-30
6.6527e-07 2.0908e-30
6.6638e-07 1.5546e-30
6.675e-07 1.0503e-30
6.6861e-07 6.555e-31
6.6973e-07 3.9674e-31
6.7085e-07 2.2189e-31
6.7197e-07 1.403e-31
6.731e-07 9.9485e-32
6.7422e-07 8.5943e-32
6.7535e-07 1.0388e-31
6.7648e-07 1.711e-31
6.7761e-07 2.5972e-31
6.7874e-07 4.3221e-31
6.7988e-07 6.8328e-31
6.8101e-07 1.0804e-30
6.8215e-07 1.5357e-30
6.8329e-07 2.002e-30
6.8444e-07 2.4074e-30
6.8558e-07 2.8539e-30
6.8673e-07 3.1836e-30
6.8788e-07 2.8536e-30
6.8903e-07 3.0431e-30
6.9018e-07 6.3499e-30
6.9133e-07 2.2198e-29
6.9249e-07 6.139e-29
6.9365e-07 1.0547e-28
6.9481e-07 1.1911e-28
6.9597e-07 8.9993e-29
6.9713e-07 5.3111e-29
6.983e-07 5.478e-29
6.9946e-07 8.0529e-29
7.0063e-07 8.5969e-29
7.0181e-07 8.1246e-29
7.0298e-07 6.9189e-29
7.0415e-07 5.6722e-29
7.0533e-07 5.2165e-29
7.0651e-07 4.4367e-29
7.0769e-07 3.6327e-29
7.0888e-07 3.0918e-29
7.1006e-07 2.8056e-29
7.1125e-07 2.4536e-29
7.1244e-07 2.4145e-29
7.1363e-07 2.961e-29
7.1482e-07 4.8249e-29
7.1602e-07 1.2897e-28
7.1721e-07 2.9351e-28
7.1841e-07 4.3202e-28
7.1961e-07 4.3554e-28
7.2082e-07 3.0945e-28
7.2202e-07 1.9832e-28
7.2323e-07 2.4631e-28
7.2444e-07 3.3183e-28
7.2565e-07 3.3087e-28
7.2686e-07 2.9991e-28
7.2808e-07 2.9237e-28
7.293e-07 2.8339e-28
7.3052e-07 2.5743e-28
7.3174e-07 2.0841e-28
7.3296e-07 1.2536e-28
7.3419e-07 8.8734e-29
7.3541e-07 8.0521e-29
7.3664e-07 7.4964e-29
7.3788e-07 5.9092e-29
7.3911e-07 4.3828e-29
7.4035e-07 3.181e-29
7.4158e-07 1.9502e-29
7.4282e-07 1.2044e-29
7.4407e-07 7.0859e-30
7.4531e-07 4.2414e-30
7.4656e-07 2.9425e-30
7.478e-07 2.0099e-30
7.4905e-07 1.5129e-30
7.5031e-07 1.2008e-30
7.5156e-07 9.6745e-31
7.5282e-07 6.442e-31
7.5408e-07 4.8996e-31
7.5534e-07 3.9136e-31
7.566e-07 3.4832e-31
7.5787e-07 3.8971e-31
7.5913e-07 3.8258e-31
7.604e-07 2.8786e-31
7.6167e-07 1.8998e-31
7.6295e-07 1.1833e-31
7.6422e-07 7.2246e-32
7.655e-07 4.6325e-32
7.6678e-07 3.0901e-32
7.6806e-07 2.7125e-32
7.6935e-07 3.4024e-32
7.7063e-07 5.6884e-32
7.7192e-07 8.9413e-32
7.7321e-07 1.3682e-31
7.7451e-07 1.8665e-31
7.758e-07 2.2862e-31
7.771e-07 2.7014e-31
7.784e-07 4.0719e-31
7.797e-07 6.0455e-31
7.81e-07 8.7292e-31
7.8231e-07 1.5049e-30
7.8362e-07 3.3073e-30
7.8493e-07 7.2878e-30
7.8624e-07 1.5556e-29
7.8755e-07 2.8307e-29
7.8887e-07 4.3301e-29
7.9019e-07 5.0275e-29
7.9151e-07 4.6107e-29
7.9283e-07 3.3942e-29
7.9416e-07 2.5423e-29
7.9549e-07 4.1739e-29
7.9682e-07 4.5986e-29
7.9815e-07 4.0234e-29
7.9949e-07 4.1215e-29
8.0082e-07 5.1865e-29
8.0216e-07 5.4094e-29
8.035e-07 5.0811e-29
8.0485e-07 3.9022e-29
8.0619e-07 2.9244e-29
8.0754e-07 3.1375e-29
8.0889e-07 4.1904e-29
8.1024e-07 6.5408e-29
8.116e-07 1.1526e-28
8.1295e-07 2.0098e-28
8.1431e-07 3.2057e-28
8.1568e-07 4.1222e-28
8.1704e-07 4.2864e-28
8.1841e-07 3.7569e-28
8.1977e-07 2.7216e-28
8.2114e-07 2.4568e-28
8.2252e-07 3.4995e-28
8.2389e-07 3.4182e-28
8.2527e-07 2.1745e-28
8.2665e-07 1.9718e-28
8.2803e-07 2.5174e-28
8.2942e-07 2.6054e-28
8.308e-07 2.23e-28
8.3219e-07 2.0028e-28
8.3358e-07 1.5923e-28
8.3498e-07 1.1471e-28
8.3637e-07 9.2325e-29
8.3777e-07 7.0399e-29
8.3917e-07 4.9184e-29
8.4058e-07 3.9098e-29
8.4198e-07 2.9732e-29
8.4339e-07 2.3653e-29
8.448e-07 1.6489e-29
8.4621e-07 1.1247e-29
8.4763e-07 9.4484e-30
8.4904e-07 1.0502e-29
8.5046e-07 1.3016e-29
8.5189e-07 1.3831e-29
8.5331e-07 1.1974e-29
8.5474e-07 9.554e-30
8.5617e-07 7.5837e-30
8.576e-07 5.7937e-30
8.5903e-07 4.0502e-30
8.6047e-07 2.4623e-30
8.6191e-07 1.5595e-30
8.6335e-07 1.0375e-30
8.6479e-07 6.305e-31
8.6624e-07 3.9773e-31
8.6769e-07 3.2928e-31
8.6914e-07 3.214e-31
8.7059e-07 3.2746e-31
8.7205e-07 4.0832e-31
8.735e-07 6.4659e-31
8.7497e-07 1.0173e-30
8.7643e-07 1.7482e-30
8.7789e-07 2.7962e-30
8.7936e-07 3.7703e-30
8.8083e-07 5.32e-30
8.823e-07 6.621e-30
8.8378e-07 7.5133e-30
8.8526e-07 9.7577e-30
8.8674e-07 1.3123e-29
8.8822e-07 1.4609e-29
8.8971e-07 1.5538e-29
8.9119e-07 2.9411e-29
8.9268e-07 7.4474e-29
8.9418e-07 1.6918e-28
8.9567e-07 3.0663e-28
8.9717e-07 4.4092e-28
8.9867e-07 5.3488e-28
9.0017e-07 5.3922e-28
9.0168e-07 4.6298e-28
9.0318e-07 3.1983e-28
9.0469e-07 2.3215e-28
9.0621e-07 3.0753e-28
9.0772e-07 4.4654e-28
9.0924e-07 4.9166e-28
9.1076e-07 4.6919e-28
9.1228e-07 4.764e-28
9.1381e-07 5.3732e-28
9.1534e-07 5.4198e-28
9.1687e-07 4.8715e-28
9.184e-07 4.153e-28
9.1994e-07 3.0759e-28
9.2147e-07 2.5294e-28
9.2301e-07 2.6438e-28
9.2456e-07 2.9067e-28
9.261e-07 3.3399e-28
9.2765e-07 5.2067e-28
9.292e-07 8.8087e-28
9.3076e-07 1.3509e-27
9.3231e-07 1.9299e-27
9.3387e-07 2.3724e-27
9.3543e-07 2.3142e-27
9.37e-07 2.0793e-27
9.3857e-07 1.6165e-27
9.4013e-07 1.2155e-27
9.4171e-07 1.2614e-27
9.4328e-07 1.536e-27
9.4486e-07 1.6685e-27
9.4644e-07 1.6279e-27
9.4802e-07 1.5575e-27
9.4961e-07 1.4733e-27
9.5119e-07 1.4097e-27
9.5278e-07 1.397e-27
9.5438e-07 1.3708e-27
9.5597e-07 1.2915e-27
9.5757e-07 1.2296e-27
9.5917e-07 1.1885e-27
9.6078e-07 1.0992e-27
9.6238e-07 9.6133e-28
9.6399e-07 8.7437e-28
9.656e-07 7.494e-28
9.6722e-07 5.5558e-28
9.6884e-07 3.6294e-28
9.7046e-07 2.8342e-28
9.7208e-07 3.2394e-28
9.737e-07 4.2428e-28
9.7533e-07 4.5157e-28
9.7696e-07 3.9745e-28
9.786e-07 3.5342e-28
9.8023e-07 2.9821e-28
9.8187e-07 2.2036e-28
9.8351e-07 1.6793e-28
9.8516e-07 1.2471e-28
9.868e-07 7.7886e-29
9.8845e-07 5.3825e-29
9.9011e-07 4.6159e-29
9.9176e-07 3.55e-29
9.9342e-07 2.6574e-29
9.9508e-07 1.7422e-29
9.9675e-07 1.2601e-29
9.9841e-07 1.3821e-29
1.0001e-06 1.9141e-29
1.0018e-06 2.4077e-29
1.0034e-06 2.0921e-29
1.0051e-06 1.6683e-29
1.0068e-06 1.6026e-29
1.0085e-06 2.0825e-29
1.0102e-06 2.1165e-29
1.0118e-06 1.4319e-29
1.0135e-06 9.4059e-30
1.0152e-06 8.7141e-30
1.0169e-06 8.9323e-30
1.0186e-06 9.7797e-30
1.0203e-06 9.8311e-30
1.022e-06 1.1651e-29
1.0237e-06 1.3328e-29
1.0255e-06 1.0417e-29
1.0272e-06 7.7887e-30
1.0289e-06 6.8923e-30
1.0306e-06 4.2541e-30
1.0323e-06 2.6054e-30
1.0341e-06 1.668e-30
1.0358e-06 1.2208e-30
1.0375e-06 1.0726e-30
1.0393e-06 9.4088e-31
1.041e-06 9.384e-31
1.0427e-06 8.0034e-31
1.0445e-06 5.6709e-31
1.0462e-06 4.5451e-31
1.048e-06 3.758e-31
1.0497e-06 4.0392e-31
1.0515e-06 5.7187e-31
1.0532e-06 6.764e-31
1.055e-06 6.3905e-31
1.0568e-06 8.4824e-31
1.0585e-06 1.2006e-30
1.0603e-06 1.6311e-30
1.0621e-06 2.6756e-30
1.0639e-06 3.518e-30
1.0656e-06 4.5014e-30
1.0674e-06 8.1229e-30
1.0692e-06 1.1397e-29
1.071e-06 1.3285e-29
1.0728e-06 1.9462e-29
1.0746e-06 2.6539e-29
1.0764e-06 3.0921e-29
1.0782e-06 3.9254e-29
1.08e-06 4.7779e-29
1.0818e-06 5.4264e-29
1.0836e-06 6.9359e-29
1.0854e-06 8.5006e-29
1.0872e-06 8.8994e-29
1.089e-06 8.599e-29
1.0908e-06 1.0247e-28
1.0927e-06 1.3448e-28
1.0945e-06 1.5584e-28
1.0963e-06 1.8311e-28
1.0982e-06 2.3652e-28
1.1e-06 3.1029e-28