File: material/gas/smooth_input/h2o_uv_vis_toa_T0_P1.txt
2.8e-07 -0
2.8047e-07 -0
2.8094e-07 -0
2.814e-07 -0
2.8187e-07 -0
2.8234e-07 -0
2.8282e-07 -0
2.8329e-07 -0
2.8376e-07 -0
2.8423e-07 -0
2.8471e-07 -0
2.8518e-07 -0
2.8566e-07 -0
2.8614e-07 -0
2.8661e-07 -0
2.8709e-07 -0
2.8757e-07 -0
2.8805e-07 -0
2.8853e-07 -0
2.8901e-07 -0
2.895e-07 -0
2.8998e-07 -0
2.9046e-07 -0
2.9095e-07 -0
2.9143e-07 -0
2.9192e-07 -0
2.9241e-07 -0
2.929e-07 -0
2.9339e-07 -0
2.9388e-07 -0
2.9437e-07 -0
2.9486e-07 -0
2.9535e-07 -0
2.9584e-07 -0
2.9634e-07 -0
2.9683e-07 -0
2.9733e-07 -0
2.9782e-07 -0
2.9832e-07 -0
2.9882e-07 -0
2.9932e-07 -0
2.9982e-07 -0
3.0032e-07 -0
3.0082e-07 -0
3.0132e-07 -0
3.0182e-07 -0
3.0233e-07 -0
3.0283e-07 -0
3.0334e-07 -0
3.0384e-07 -0
3.0435e-07 -0
3.0486e-07 -0
3.0537e-07 -0
3.0588e-07 -0
3.0639e-07 -0
3.069e-07 -0
3.0741e-07 -0
3.0792e-07 -0
3.0844e-07 -0
3.0895e-07 -0
3.0947e-07 -0
3.0998e-07 -0
3.105e-07 -0
3.1102e-07 -0
3.1154e-07 -0
3.1206e-07 -0
3.1258e-07 -0
3.131e-07 -0
3.1362e-07 -0
3.1415e-07 -0
3.1467e-07 -0
3.152e-07 -0
3.1572e-07 -0
3.1625e-07 -0
3.1678e-07 -0
3.1731e-07 -0
3.1784e-07 -0
3.1837e-07 -0
3.189e-07 -0
3.1943e-07 -0
3.1996e-07 -0
3.205e-07 -0
3.2103e-07 -0
3.2157e-07 -0
3.2211e-07 -0
3.2264e-07 -0
3.2318e-07 -0
3.2372e-07 -0
3.2426e-07 -0
3.248e-07 -0
3.2535e-07 -0
3.2589e-07 -0
3.2643e-07 -0
3.2698e-07 -0
3.2752e-07 -0
3.2807e-07 -0
3.2862e-07 -0
3.2917e-07 -0
3.2972e-07 -0
3.3027e-07 -0
3.3082e-07 -0
3.3137e-07 -0
3.3192e-07 -0
3.3248e-07 -0
3.3303e-07 -0
3.3359e-07 -0
3.3414e-07 -0
3.347e-07 -0
3.3526e-07 -0
3.3582e-07 -0
3.3638e-07 -0
3.3694e-07 -0
3.375e-07 -0
3.3807e-07 -0
3.3863e-07 -0
3.392e-07 -0
3.3976e-07 -0
3.4033e-07 -0
3.409e-07 -0
3.4147e-07 -0
3.4204e-07 -0
3.4261e-07 -0
3.4318e-07 -0
3.4375e-07 -0
3.4433e-07 -0
3.449e-07 -0
3.4548e-07 -0
3.4605e-07 -0
3.4663e-07 -0
3.4721e-07 -0
3.4779e-07 -0
3.4837e-07 -0
3.4895e-07 -0
3.4953e-07 -0
3.5012e-07 -0
3.507e-07 -0
3.5129e-07 -0
3.5187e-07 -0
3.5246e-07 -0
3.5305e-07 -0
3.5364e-07 -0
3.5423e-07 -0
3.5482e-07 -0
3.5541e-07 -0
3.5601e-07 -0
3.566e-07 -0
3.572e-07 -0
3.5779e-07 -0
3.5839e-07 -0
3.5899e-07 -0
3.5959e-07 -0
3.6019e-07 -0
3.6079e-07 -0
3.6139e-07 -0
3.6199e-07 -0
3.626e-07 -0
3.632e-07 -0
3.6381e-07 -0
3.6442e-07 -0
3.6502e-07 -0
3.6563e-07 -0
3.6624e-07 -0
3.6686e-07 -0
3.6747e-07 -0
3.6808e-07 -0
3.687e-07 -0
3.6931e-07 -0
3.6993e-07 -0
3.7054e-07 -0
3.7116e-07 -0
3.7178e-07 -0
3.724e-07 -0
3.7302e-07 -0
3.7365e-07 -0
3.7427e-07 -0
3.749e-07 -0
3.7552e-07 -0
3.7615e-07 -0
3.7678e-07 -0
3.7741e-07 -0
3.7804e-07 -0
3.7867e-07 -0
3.793e-07 -0
3.7993e-07 -0
3.8057e-07 -0
3.812e-07 -0
3.8184e-07 -0
3.8247e-07 -0
3.8311e-07 -0
3.8375e-07 -0
3.8439e-07 -0
3.8503e-07 -0
3.8568e-07 2.5229e-38
3.8632e-07 3.925e-37
3.8697e-07 1.8788e-36
3.8761e-07 6.4983e-36
3.8826e-07 2.2432e-35
3.8891e-07 8.3857e-33
3.8956e-07 2.7175e-32
3.9021e-07 7.6757e-32
3.9086e-07 1.0474e-31
3.9151e-07 7.3729e-32
3.9216e-07 5.0496e-32
3.9282e-07 7.469e-32
3.9347e-07 4.5871e-32
3.9413e-07 1.0465e-32
3.9479e-07 3.1273e-32
3.9545e-07 4.8069e-32
3.9611e-07 1.332e-31
3.9677e-07 4.3503e-31
3.9743e-07 8.1303e-31
3.9809e-07 3.7437e-31
3.9876e-07 4.5441e-31
3.9942e-07 4.5754e-31
4.0009e-07 3.8664e-31
4.0076e-07 2.6823e-31
4.0143e-07 1.6444e-31
4.021e-07 1.3793e-31
4.0277e-07 8.6005e-32
4.0344e-07 6.0549e-32
4.0411e-07 4.8793e-32
4.0479e-07 3.5863e-32
4.0546e-07 2.1334e-32
4.0614e-07 1.0043e-32
4.0682e-07 4.4327e-33
4.075e-07 5.0749e-33
4.0818e-07 6.3873e-33
4.0886e-07 8.154e-33
4.0954e-07 2.162e-35
4.1023e-07 6.9806e-36
4.1091e-07 1.8329e-33
4.116e-07 2.1079e-33
4.1228e-07 1.7146e-32
4.1297e-07 3.5444e-32
4.1366e-07 3.1795e-32
4.1435e-07 6.2728e-32
4.1504e-07 1.9438e-31
4.1574e-07 2.7388e-31
4.1643e-07 5.319e-31
4.1712e-07 3.6706e-31
4.1782e-07 2.1549e-31
4.1852e-07 2.3628e-31
4.1922e-07 1.9921e-31
4.1992e-07 1.2294e-31
4.2062e-07 6.8276e-32
4.2132e-07 4.1661e-32
4.2202e-07 2.4784e-32
4.2273e-07 1.1009e-32
4.2343e-07 5.0812e-33
4.2414e-07 2.3032e-33
4.2485e-07 4.0822e-32
4.2556e-07 7.5112e-32
4.2627e-07 1.4826e-31
4.2698e-07 6.0135e-32
4.2769e-07 8.1324e-32
4.2841e-07 6.1294e-32
4.2912e-07 7.2492e-32
4.2984e-07 3.9028e-32
4.3055e-07 2.2817e-32
4.3127e-07 6.7784e-33
4.3199e-07 5.318e-33
4.3271e-07 1.9799e-33
4.3344e-07 2.8433e-34
4.3416e-07 3.3293e-36
4.3488e-07 1.9072e-35
4.3561e-07 6.0175e-33
4.3634e-07 2.8091e-33
4.3707e-07 5.7041e-35
4.3779e-07 1.1234e-32
4.3853e-07 4.0563e-32
4.3926e-07 1.3097e-31
4.3999e-07 2.1177e-31
4.4073e-07 3.23e-31
4.4146e-07 9.6339e-31
4.422e-07 1.749e-30
4.4294e-07 3.4579e-30
4.4368e-07 1.315e-30
4.4442e-07 1.6158e-30
4.4516e-07 1.8398e-30
4.459e-07 1.7771e-30
4.4664e-07 1.1122e-30
4.4739e-07 8.4393e-31
4.4814e-07 4.8684e-31
4.4889e-07 3.2613e-31
4.4963e-07 1.5464e-31
4.5038e-07 9.0544e-32
4.5114e-07 4.791e-32
4.5189e-07 1.9966e-32
4.5264e-07 5.3806e-32
4.534e-07 5.9412e-32
4.5416e-07 3.7246e-32
4.5491e-07 6.3678e-32
4.5567e-07 6.1705e-32
4.5643e-07 8.2621e-32
4.572e-07 6.9128e-32
4.5796e-07 4.4285e-32
4.5872e-07 4.7829e-32
4.5949e-07 3.3436e-32
4.6026e-07 2.6466e-32
4.6102e-07 9.9709e-33
4.6179e-07 2.5733e-33
4.6256e-07 5.6546e-33
4.6334e-07 1.3621e-33
4.6411e-07 9.7226e-33
4.6489e-07 8.0872e-33
4.6566e-07 3.6575e-32
4.6644e-07 2.0877e-31
4.6722e-07 5.7931e-31
4.68e-07 4.5997e-31
4.6878e-07 7.7127e-31
4.6956e-07 1.386e-30
4.7034e-07 1.0038e-30
4.7113e-07 8.9609e-31
4.7192e-07 6.4215e-31
4.727e-07 7.914e-31
4.7349e-07 6.4993e-31
4.7428e-07 4.3383e-31
4.7507e-07 2.6127e-31
4.7587e-07 1.7286e-31
4.7666e-07 1.1797e-31
4.7746e-07 5.7919e-32
4.7825e-07 2.8473e-32
4.7905e-07 1.1071e-32
4.7985e-07 5.9385e-34
4.8065e-07 8.7758e-35
4.8146e-07 4.2789e-33
4.8226e-07 1.6621e-32
4.8306e-07 6.1539e-32
4.8387e-07 2.3431e-31
4.8468e-07 9.0265e-31
4.8549e-07 1.2652e-30
4.863e-07 6.9301e-31
4.8711e-07 9.1706e-31
4.8792e-07 8.7284e-31
4.8874e-07 8.2116e-31
4.8955e-07 7.9943e-31
4.9037e-07 5.0877e-31
4.9119e-07 4.3674e-31
4.9201e-07 2.8755e-31
4.9283e-07 2.1616e-31
4.9365e-07 1.0909e-31
4.9448e-07 6.6676e-32
4.953e-07 3.4741e-32
4.9613e-07 2.5641e-32
4.9696e-07 3.2852e-32
4.9779e-07 1.0807e-31
4.9862e-07 3.572e-31
4.9945e-07 6.4152e-31
5.0028e-07 1.1054e-30
5.0112e-07 1.9221e-30
5.0195e-07 3.7853e-30
5.0279e-07 5.7552e-30
5.0363e-07 1.6278e-29
5.0447e-07 1.4136e-29
5.0531e-07 6.7675e-30
5.0616e-07 9.1775e-30
5.07e-07 9.7134e-30
5.0785e-07 9.6559e-30
5.087e-07 6.727e-30
5.0954e-07 5.4512e-30
5.104e-07 3.4517e-30
5.1125e-07 2.2559e-30
5.121e-07 1.4282e-30
5.1296e-07 8.6693e-31
5.1381e-07 4.2473e-31
5.1467e-07 2.5456e-31
5.1553e-07 1.9469e-31
5.1639e-07 1.4761e-31
5.1725e-07 1.133e-31
5.1811e-07 9.0714e-32
5.1898e-07 7.8823e-32
5.1984e-07 6.2238e-32
5.2071e-07 4.7104e-32
5.2158e-07 6.0426e-32
5.2245e-07 9.8634e-32
5.2332e-07 4.5773e-31
5.242e-07 1.4436e-30
5.2507e-07 1.221e-30
5.2595e-07 3.98e-31
5.2683e-07 9.7897e-31
5.2771e-07 6.8703e-31
5.2859e-07 6.5752e-31
5.2947e-07 6.9876e-31
5.3035e-07 7.4036e-31
5.3124e-07 5.4681e-31
5.3213e-07 4.1068e-31
5.3301e-07 2.9445e-31
5.339e-07 1.9479e-31
5.3479e-07 2.3713e-31
5.3569e-07 3.2023e-31
5.3658e-07 4.5578e-31
5.3748e-07 6.0195e-31
5.3837e-07 1.0028e-30
5.3927e-07 1.641e-30
5.4017e-07 3.3542e-30
5.4107e-07 7.5776e-30
5.4198e-07 6.9374e-30
5.4288e-07 4.5708e-30
5.4379e-07 6.3517e-30
5.447e-07 4.5538e-30
5.4561e-07 5.6279e-30
5.4652e-07 6.9896e-30
5.4743e-07 3.6762e-30
5.4834e-07 2.6079e-30
5.4926e-07 2.2347e-30
5.5017e-07 1.9103e-30
5.5109e-07 1.2991e-30
5.5201e-07 6.8945e-31
5.5293e-07 4.3082e-31
5.5386e-07 2.5323e-31
5.5478e-07 2.0694e-31
5.5571e-07 1.0731e-31
5.5663e-07 3.4637e-32
5.5756e-07 8.4708e-32
5.5849e-07 1.674e-31
5.5943e-07 2.2759e-31
5.6036e-07 3.5704e-31
5.613e-07 3.9214e-31
5.6223e-07 4.7461e-31
5.6317e-07 4.2414e-31
5.6411e-07 4.1005e-31
5.6505e-07 5.0358e-31
5.66e-07 6.8925e-31
5.6694e-07 1.7516e-30
5.6789e-07 5.7747e-30
5.6883e-07 1.4608e-29
5.6978e-07 1.3529e-29
5.7074e-07 5.8914e-30
5.7169e-07 7.2795e-30
5.7264e-07 9.5296e-30
5.736e-07 7.9044e-30
5.7456e-07 9.3826e-30
5.7551e-07 6.8543e-30
5.7647e-07 5.7287e-30
5.7744e-07 5.7786e-30
5.784e-07 3.2585e-30
5.7937e-07 2.4992e-30
5.8033e-07 1.9358e-30
5.813e-07 1.9115e-30
5.8227e-07 2.1628e-30
5.8324e-07 2.5533e-30
5.8422e-07 3.0251e-30
5.8519e-07 3.5581e-30
5.8617e-07 6.6647e-30
5.8715e-07 1.3625e-29
5.8813e-07 3.9882e-29
5.8911e-07 7.1123e-29
5.9009e-07 6.93e-29
5.9108e-07 5.2413e-29
5.9206e-07 6.8157e-29
5.9305e-07 4.1535e-29
5.9404e-07 5.2053e-29
5.9503e-07 6.3193e-29
5.9603e-07 3.7147e-29
5.9702e-07 3.862e-29
5.9802e-07 2.8231e-29
5.9902e-07 2.2101e-29
6.0002e-07 1.5343e-29
6.0102e-07 8.358e-30
6.0202e-07 5.9796e-30
6.0303e-07 3.5491e-30
6.0403e-07 1.755e-30
6.0504e-07 1.1208e-30
6.0605e-07 7.0374e-31
6.0706e-07 3.7185e-31
6.0808e-07 2.6142e-31
6.0909e-07 1.7761e-31
6.1011e-07 1.1589e-31
6.1113e-07 7.4029e-32
6.1215e-07 6.0931e-32
6.1317e-07 4.0196e-32
6.1419e-07 3.8896e-32
6.1522e-07 4.9252e-32
6.1624e-07 5.0067e-32
6.1727e-07 6.0583e-32
6.183e-07 9.7264e-32
6.1933e-07 1.0457e-31
6.2037e-07 1.2033e-31
6.214e-07 1.3324e-31
6.2244e-07 1.7702e-31
6.2348e-07 2.7222e-31
6.2452e-07 5.7117e-31
6.2556e-07 1.711e-30
6.2661e-07 5.1612e-30
6.2765e-07 1.0094e-29
6.287e-07 1.0785e-29
6.2975e-07 7.0895e-30
6.308e-07 2.3948e-30
6.3185e-07 9.4329e-30
6.3291e-07 7.0961e-30
6.3397e-07 5.1997e-30
6.3502e-07 6.0007e-30
6.3608e-07 4.8574e-30
6.3715e-07 4.8427e-30
6.3821e-07 3.7344e-30
6.3927e-07 4.0874e-30
6.4034e-07 4.0102e-30
6.4141e-07 4.0736e-30
6.4248e-07 4.0425e-30
6.4355e-07 5.4006e-30
6.4463e-07 7.7867e-30
6.457e-07 1.6752e-29
6.4678e-07 3.82e-29
6.4786e-07 6.1878e-29
6.4894e-07 4.9295e-29
6.5003e-07 2.7039e-29
6.5111e-07 3.1113e-29
6.522e-07 4.6811e-29
6.5329e-07 2.0899e-29
6.5438e-07 2.6252e-29
6.5547e-07 3.4087e-29
6.5656e-07 2.6464e-29
6.5766e-07 2.3555e-29
6.5876e-07 1.4883e-29
6.5986e-07 9.4395e-30
6.6096e-07 5.8512e-30
6.6206e-07 3.2673e-30
6.6317e-07 2.9968e-30
6.6427e-07 2.7262e-30
6.6538e-07 1.9265e-30
6.6649e-07 1.5817e-30
6.676e-07 8.8601e-31
6.6872e-07 6.4591e-31
6.6983e-07 3.3234e-31
6.7095e-07 1.9585e-31
6.7207e-07 1.3002e-31
6.7319e-07 8.4833e-32
6.7432e-07 8.518e-32
6.7544e-07 8.7906e-32
6.7657e-07 1.7588e-31
6.777e-07 2.4628e-31
6.7883e-07 4.1421e-31
6.7996e-07 6.9557e-31
6.811e-07 9.7345e-31
6.8224e-07 1.7423e-30
6.8338e-07 1.8712e-30
6.8452e-07 2.683e-30
6.8566e-07 2.4566e-30
6.868e-07 4.0417e-30
6.8795e-07 2.3133e-30
6.891e-07 2.4711e-30
6.9025e-07 5.1667e-30
6.914e-07 1.3499e-29
6.9255e-07 5.4666e-29
6.9371e-07 1.0402e-28
6.9487e-07 1.0498e-28
6.9603e-07 7.9954e-29
6.9719e-07 2.7395e-29
6.9835e-07 4.4699e-29
6.9952e-07 7.9984e-29
7.0069e-07 7.6515e-29
7.0186e-07 7.5118e-29
7.0303e-07 6.1713e-29
7.042e-07 4.6046e-29
7.0538e-07 5.0231e-29
7.0655e-07 4.0875e-29
7.0773e-07 3.4645e-29
7.0891e-07 2.8879e-29
7.101e-07 2.8762e-29
7.1128e-07 2.3198e-29
7.1247e-07 2.2713e-29
7.1366e-07 2.5758e-29
7.1485e-07 3.9735e-29
7.1604e-07 7.397e-29
7.1724e-07 2.6327e-28
7.1844e-07 3.2523e-28
7.1964e-07 3.4991e-28
7.2084e-07 2.4024e-28
7.2204e-07 9.7037e-29
7.2324e-07 1.9199e-28
7.2445e-07 2.6607e-28
7.2566e-07 2.5469e-28
7.2687e-07 2.2788e-28
7.2809e-07 2.3234e-28
7.293e-07 2.1719e-28
7.3052e-07 2.1584e-28
7.3174e-07 1.8319e-28
7.3296e-07 1.0321e-28
7.3418e-07 6.8316e-29
7.3541e-07 7.2773e-29
7.3664e-07 7.6482e-29
7.3787e-07 4.9437e-29
7.391e-07 4.4342e-29
7.4033e-07 2.6277e-29
7.4157e-07 1.765e-29
7.428e-07 1.2166e-29
7.4404e-07 5.8168e-30
7.4529e-07 4.173e-30
7.4653e-07 2.7959e-30
7.4778e-07 2.0217e-30
7.4902e-07 1.3364e-30
7.5027e-07 1.3218e-30
7.5153e-07 9.9187e-31
7.5278e-07 5.5909e-31
7.5404e-07 5.2225e-31
7.553e-07 3.7649e-31
7.5656e-07 2.7997e-31
7.5782e-07 4.4788e-31
7.5908e-07 3.7389e-31
7.6035e-07 2.5095e-31
7.6162e-07 2.0036e-31
7.6289e-07 9.9928e-32
7.6417e-07 8.9729e-32
7.6544e-07 4.3373e-32
7.6672e-07 3.0977e-32
7.68e-07 2.2921e-32
7.6928e-07 3.1628e-32
7.7056e-07 4.5722e-32
7.7185e-07 9.4291e-32
7.7314e-07 1.3769e-31
7.7443e-07 1.7313e-31
7.7572e-07 2.513e-31
7.7702e-07 2.2702e-31
7.7831e-07 3.7227e-31
7.7961e-07 6.5833e-31
7.8091e-07 7.2502e-31
7.8222e-07 1.2595e-30
7.8352e-07 2.618e-30
7.8483e-07 5.9993e-30
7.8614e-07 1.2235e-29
7.8745e-07 2.5917e-29
7.8877e-07 3.8264e-29
7.9008e-07 5.1623e-29
7.914e-07 4.0562e-29
7.9272e-07 3.7322e-29
7.9405e-07 1.4343e-29
7.9537e-07 2.9194e-29
7.967e-07 5.6431e-29
7.9803e-07 2.993e-29
7.9936e-07 3.4947e-29
8.007e-07 5.1656e-29
8.0203e-07 5.1593e-29
8.0337e-07 5.0899e-29
8.0471e-07 4.1219e-29
8.0606e-07 2.3282e-29
8.074e-07 2.5166e-29
8.0875e-07 3.735e-29
8.101e-07 5.4426e-29
8.1145e-07 9.0084e-29
8.1281e-07 1.477e-28
8.1416e-07 2.4063e-28
8.1552e-07 3.0638e-28
8.1688e-07 3.2053e-28
8.1825e-07 2.8173e-28
8.1961e-07 2.1704e-28
8.2098e-07 1.0983e-28
8.2235e-07 2.5889e-28
8.2372e-07 3.2128e-28
8.251e-07 1.1221e-28
8.2647e-07 1.2831e-28
8.2785e-07 1.9962e-28
8.2924e-07 1.8796e-28
8.3062e-07 1.5722e-28
8.3201e-07 1.584e-28
8.334e-07 1.3208e-28
8.3479e-07 8.8784e-29
8.3618e-07 8.4852e-29
8.3758e-07 6.6156e-29
8.3897e-07 4.5035e-29
8.4037e-07 3.6721e-29
8.4178e-07 3.3817e-29
8.4318e-07 2.1671e-29
8.4459e-07 1.8038e-29
8.46e-07 1.0041e-29
8.4741e-07 7.7351e-30
8.4883e-07 1.0834e-29
8.5024e-07 1.0662e-29
8.5166e-07 1.6567e-29
8.5308e-07 1.0021e-29
8.5451e-07 1.1028e-29
8.5593e-07 6.9406e-30
8.5736e-07 6.5429e-30
8.5879e-07 3.8578e-30
8.6023e-07 2.5655e-30
8.6166e-07 1.5801e-30
8.631e-07 1.1455e-30
8.6454e-07 6.2489e-31
8.6598e-07 3.6569e-31
8.6743e-07 3.3171e-31
8.6888e-07 3.1633e-31
8.7033e-07 3.2784e-31
8.7178e-07 3.47e-31
8.7324e-07 5.246e-31
8.7469e-07 9.007e-31
8.7615e-07 1.4712e-30
8.7762e-07 2.4518e-30
8.7908e-07 3.5627e-30
8.8055e-07 4.725e-30
8.8202e-07 6.9299e-30
8.8349e-07 6.5883e-30
8.8496e-07 7.6028e-30
8.8644e-07 1.3739e-29
8.8792e-07 1.3884e-29
8.894e-07 1.1393e-29
8.9089e-07 1.7876e-29
8.9237e-07 4.5604e-29
8.9386e-07 1.0349e-28
8.9536e-07 2.0539e-28
8.9685e-07 3.0483e-28
8.9835e-07 3.4911e-28
8.9985e-07 3.8055e-28
9.0135e-07 3.4885e-28
9.0285e-07 2.6204e-28
9.0436e-07 1.3377e-28
9.0587e-07 1.6802e-28
9.0738e-07 3.4042e-28
9.089e-07 3.5716e-28
9.1041e-07 3.4711e-28
9.1193e-07 3.0497e-28
9.1346e-07 4.4042e-28
9.1498e-07 3.8154e-28
9.1651e-07 3.8445e-28
9.1804e-07 3.877e-28
9.1957e-07 2.1589e-28
9.211e-07 1.8912e-28
9.2264e-07 1.834e-28
9.2418e-07 2.578e-28
9.2572e-07 2.3121e-28
9.2727e-07 3.0278e-28
9.2882e-07 6.1652e-28
9.3037e-07 8.3815e-28
9.3192e-07 1.2536e-27
9.3348e-07 1.6802e-27
9.3503e-07 1.5347e-27
9.366e-07 1.4896e-27
9.3816e-07 1.4135e-27
9.3972e-07 7.051e-28
9.4129e-07 8.9168e-28
9.4286e-07 1.0176e-27
9.4444e-07 1.1684e-27
9.4601e-07 1.1378e-27
9.4759e-07 1.0573e-27
9.4918e-07 9.8238e-28
9.5076e-07 9.2729e-28
9.5235e-07 1.1221e-27
9.5394e-07 8.5201e-28
9.5553e-07 9.6893e-28
9.5712e-07 8.2475e-28
9.5872e-07 8.3884e-28
9.6032e-07 8.2211e-28
9.6192e-07 7.0383e-28
9.6353e-07 6.0241e-28
9.6514e-07 5.8123e-28
9.6675e-07 5.1697e-28
9.6836e-07 2.5908e-28
9.6998e-07 2.1753e-28
9.716e-07 1.9946e-28
9.7322e-07 3.0383e-28
9.7484e-07 3.387e-28
9.7647e-07 3.3839e-28
9.781e-07 2.4139e-28
9.7973e-07 2.6788e-28
9.8137e-07 1.5863e-28
9.8301e-07 1.5535e-28
9.8465e-07 1.1723e-28
9.8629e-07 6.1634e-29
9.8794e-07 5.6986e-29
9.8959e-07 4.32e-29
9.9124e-07 3.1241e-29
9.9289e-07 3.6254e-29
9.9455e-07 1.4195e-29
9.9621e-07 1.1821e-29
9.9787e-07 1.2511e-29
9.9954e-07 1.4887e-29
1.0012e-06 2.1781e-29
1.0029e-06 2.4518e-29
1.0046e-06 1.5576e-29
1.0062e-06 1.113e-29
1.0079e-06 1.6421e-29
1.0096e-06 2.8656e-29
1.0113e-06 1.2228e-29
1.013e-06 9.201e-30
1.0147e-06 9.4085e-30
1.0163e-06 7.9013e-30
1.018e-06 7.9495e-30
1.0197e-06 1.1996e-29
1.0214e-06 7.8589e-30
1.0232e-06 1.542e-29
1.0249e-06 1.0097e-29
1.0266e-06 7.5992e-30
1.0283e-06 8.6865e-30
1.03e-06 3.612e-30