File: material/gas/smooth_input/h2o_uv_vis_T1_P0.txt
2.8e-07 0
2.8037e-07 0
2.8075e-07 0
2.8112e-07 0
2.815e-07 0
2.8187e-07 0
2.8225e-07 0
2.8263e-07 0
2.8301e-07 0
2.8338e-07 0
2.8376e-07 0
2.8414e-07 0
2.8452e-07 0
2.849e-07 0
2.8528e-07 0
2.8566e-07 0
2.8604e-07 0
2.8642e-07 0
2.8681e-07 0
2.8719e-07 0
2.8757e-07 0
2.8796e-07 0
2.8834e-07 0
2.8873e-07 0
2.8911e-07 0
2.895e-07 0
2.8989e-07 0
2.9027e-07 0
2.9066e-07 0
2.9105e-07 0
2.9144e-07 0
2.9183e-07 0
2.9222e-07 0
2.9261e-07 0
2.93e-07 0
2.9339e-07 0
2.9378e-07 0
2.9417e-07 0
2.9456e-07 0
2.9496e-07 0
2.9535e-07 0
2.9575e-07 0
2.9614e-07 0
2.9654e-07 0
2.9693e-07 0
2.9733e-07 0
2.9773e-07 0
2.9812e-07 0
2.9852e-07 0
2.9892e-07 0
2.9932e-07 0
2.9972e-07 0
3.0012e-07 0
3.0052e-07 0
3.0092e-07 0
3.0132e-07 0
3.0173e-07 0
3.0213e-07 0
3.0253e-07 0
3.0294e-07 0
3.0334e-07 0
3.0375e-07 0
3.0415e-07 0
3.0456e-07 0
3.0496e-07 0
3.0537e-07 0
3.0578e-07 0
3.0619e-07 0
3.066e-07 0
3.0701e-07 0
3.0742e-07 0
3.0783e-07 0
3.0824e-07 0
3.0865e-07 0
3.0906e-07 0
3.0947e-07 0
3.0989e-07 0
3.103e-07 0
3.1071e-07 0
3.1113e-07 0
3.1155e-07 0
3.1196e-07 0
3.1238e-07 0
3.1279e-07 0
3.1321e-07 0
3.1363e-07 0
3.1405e-07 0
3.1447e-07 0
3.1489e-07 0
3.1531e-07 0
3.1573e-07 0
3.1615e-07 0
3.1657e-07 0
3.17e-07 0
3.1742e-07 0
3.1784e-07 0
3.1827e-07 0
3.1869e-07 0
3.1912e-07 0
3.1955e-07 0
3.1997e-07 0
3.204e-07 0
3.2083e-07 0
3.2126e-07 0
3.2168e-07 0
3.2211e-07 0
3.2254e-07 0
3.2297e-07 0
3.2341e-07 0
3.2384e-07 0
3.2427e-07 0
3.247e-07 0
3.2514e-07 0
3.2557e-07 0
3.2601e-07 0
3.2644e-07 0
3.2688e-07 0
3.2731e-07 0
3.2775e-07 0
3.2819e-07 0
3.2863e-07 0
3.2907e-07 0
3.295e-07 0
3.2994e-07 0
3.3039e-07 0
3.3083e-07 0
3.3127e-07 0
3.3171e-07 0
3.3215e-07 0
3.326e-07 0
3.3304e-07 0
3.3349e-07 0
3.3393e-07 0
3.3438e-07 0
3.3482e-07 0
3.3527e-07 0
3.3572e-07 0
3.3617e-07 0
3.3662e-07 0
3.3706e-07 0
3.3752e-07 0
3.3797e-07 0
3.3842e-07 0
3.3887e-07 0
3.3932e-07 0
3.3977e-07 0
3.4023e-07 0
3.4068e-07 0
3.4114e-07 0
3.4159e-07 0
3.4205e-07 0
3.4251e-07 0
3.4296e-07 0
3.4342e-07 0
3.4388e-07 0
3.4434e-07 0
3.448e-07 0
3.4526e-07 0
3.4572e-07 0
3.4618e-07 0
3.4664e-07 0
3.4711e-07 0
3.4757e-07 0
3.4803e-07 0
3.485e-07 0
3.4896e-07 0
3.4943e-07 0
3.499e-07 0
3.5036e-07 0
3.5083e-07 0
3.513e-07 0
3.5177e-07 0
3.5224e-07 0
3.5271e-07 0
3.5318e-07 0
3.5365e-07 0
3.5412e-07 0
3.546e-07 0
3.5507e-07 0
3.5555e-07 0
3.5602e-07 0
3.565e-07 0
3.5697e-07 0
3.5745e-07 0
3.5793e-07 0
3.584e-07 0
3.5888e-07 0
3.5936e-07 0
3.5984e-07 0
3.6032e-07 0
3.608e-07 0
3.6128e-07 0
3.6177e-07 0
3.6225e-07 0
3.6273e-07 0
3.6322e-07 0
3.637e-07 0
3.6419e-07 0
3.6468e-07 0
3.6516e-07 0
3.6565e-07 0
3.6614e-07 0
3.6663e-07 0
3.6712e-07 0
3.6761e-07 0
3.681e-07 0
3.6859e-07 0
3.6908e-07 0
3.6957e-07 0
3.7007e-07 0
3.7056e-07 0
3.7106e-07 0
3.7155e-07 0
3.7205e-07 0
3.7255e-07 0
3.7304e-07 0
3.7354e-07 0
3.7404e-07 0
3.7454e-07 0
3.7504e-07 0
3.7554e-07 0
3.7604e-07 0
3.7654e-07 0
3.7705e-07 0
3.7755e-07 0
3.7805e-07 0
3.7856e-07 0
3.7906e-07 0
3.7957e-07 0
3.8008e-07 0
3.8058e-07 0
3.8109e-07 0
3.816e-07 0
3.8211e-07 0
3.8262e-07 0
3.8313e-07 0
3.8364e-07 0
3.8416e-07 0
3.8467e-07 0
3.8518e-07 1.8316e-40
3.857e-07 4.7122e-38
3.8621e-07 4.605e-37
3.8673e-07 1.8435e-36
3.8724e-07 5.6089e-36
3.8776e-07 1.4092e-35
3.8828e-07 9.1814e-35
3.888e-07 8.1872e-33
3.8932e-07 2.4412e-32
3.8984e-07 6.361e-32
3.9036e-07 1.1445e-31
3.9088e-07 1.4532e-31
3.914e-07 1.1109e-31
3.9192e-07 6.359e-32
3.9245e-07 8.6342e-32
3.9297e-07 1.0682e-31
3.935e-07 6.0697e-32
3.9402e-07 1.9226e-32
3.9455e-07 2.2551e-32
3.9507e-07 5.8261e-32
3.956e-07 7.4774e-32
3.9613e-07 2.0798e-31
3.9666e-07 4.9976e-31
3.9719e-07 1.1129e-30
3.9772e-07 7.8024e-31
3.9825e-07 5.269e-31
3.9878e-07 6.1385e-31
3.9931e-07 6.1291e-31
3.9985e-07 5.9706e-31
4.0038e-07 4.483e-31
4.0092e-07 3.1463e-31
4.0145e-07 2.2557e-31
4.0199e-07 2.0227e-31
4.0252e-07 1.2768e-31
4.0306e-07 1.1116e-31
4.036e-07 7.0099e-32
4.0414e-07 6.7572e-32
4.0468e-07 5.5516e-32
4.0522e-07 3.3688e-32
4.0576e-07 1.9871e-32
4.063e-07 1.4943e-32
4.0684e-07 7.1713e-33
4.0739e-07 6.4376e-33
4.0793e-07 5.4397e-33
4.0848e-07 1.2113e-32
4.0902e-07 8.5393e-33
4.0957e-07 1.8687e-34
4.1011e-07 1.0949e-35
4.1066e-07 8.1178e-35
4.1121e-07 4.8533e-33
4.1176e-07 3.1627e-33
4.1231e-07 2.4532e-32
4.1286e-07 4.9849e-32
4.1341e-07 4.6937e-32
4.1396e-07 4.511e-32
4.1452e-07 1.1496e-31
4.1507e-07 2.5447e-31
4.1562e-07 3.4377e-31
4.1618e-07 5.4332e-31
4.1673e-07 8.2134e-31
4.1729e-07 3.3513e-31
4.1785e-07 3.2222e-31
4.1841e-07 3.2662e-31
4.1897e-07 2.8678e-31
4.1952e-07 2.4143e-31
4.2008e-07 1.3229e-31
4.2065e-07 9.3081e-32
4.2121e-07 6.2898e-32
4.2177e-07 3.8325e-32
4.2233e-07 2.4855e-32
4.229e-07 1.28e-32
4.2346e-07 6.2499e-33
4.2403e-07 4.2518e-33
4.2459e-07 2.8851e-32
4.2516e-07 8.0029e-32
4.2573e-07 1.2174e-31
4.263e-07 2.0489e-31
4.2687e-07 8.2465e-32
4.2744e-07 1.1121e-31
4.2801e-07 8.9883e-32
4.2858e-07 8.9952e-32
4.2915e-07 9.5864e-32
4.2972e-07 5.7185e-32
4.303e-07 4.5024e-32
4.3087e-07 1.489e-32
4.3145e-07 9.0024e-33
4.3202e-07 5.7595e-33
4.326e-07 3.2011e-33
4.3318e-07 1.4661e-33
4.3376e-07 7.1652e-36
4.3434e-07 5.8519e-36
4.3492e-07 2.0068e-34
4.355e-07 5.9345e-33
4.3608e-07 8.5033e-33
4.3666e-07 2.1668e-33
4.3724e-07 9.1309e-34
4.3783e-07 1.7771e-32
4.3841e-07 3.9941e-32
4.39e-07 1.433e-31
4.3958e-07 1.9953e-31
4.4017e-07 3.3017e-31
4.4076e-07 4.4828e-31
4.4135e-07 1.1402e-30
4.4194e-07 1.6243e-30
4.4253e-07 3.9546e-30
4.4312e-07 4.1093e-30
4.4371e-07 1.7059e-30
4.443e-07 2.0317e-30
4.4489e-07 2.595e-30
4.4549e-07 2.4953e-30
4.4608e-07 2.1048e-30
4.4668e-07 1.5317e-30
4.4728e-07 1.2171e-30
4.4787e-07 8.2619e-31
4.4847e-07 5.517e-31
4.4907e-07 3.6978e-31
4.4967e-07 2.0392e-31
4.5027e-07 1.3272e-31
4.5087e-07 8.9228e-32
4.5147e-07 3.3446e-32
4.5208e-07 3.0736e-32
4.5268e-07 7.6105e-32
4.5328e-07 9.7912e-32
4.5389e-07 3.7219e-32
4.545e-07 8.5294e-32
4.551e-07 8.0923e-32
4.5571e-07 8.5017e-32
4.5632e-07 1.0004e-31
4.5693e-07 1.3384e-31
4.5754e-07 5.0202e-32
4.5815e-07 7.1641e-32
4.5876e-07 6.2247e-32
4.5937e-07 4.7872e-32
4.5999e-07 4.1665e-32
4.606e-07 2.0959e-32
4.6122e-07 1.1728e-32
4.6183e-07 3.285e-33
4.6245e-07 7.7288e-33
4.6307e-07 2.8625e-33
4.6368e-07 6.0598e-33
4.643e-07 1.2074e-32
4.6492e-07 1.2702e-32
4.6554e-07 3.6713e-32
4.6617e-07 1.637e-31
4.6679e-07 5.1703e-31
4.6741e-07 8.254e-31
4.6804e-07 6.2031e-31
4.6866e-07 9.9048e-31
4.6929e-07 1.4412e-30
4.6991e-07 2.05e-30
4.7054e-07 1.209e-30
4.7117e-07 1.2448e-30
4.718e-07 8.6174e-31
4.7243e-07 1.0288e-30
4.7306e-07 1.0846e-30
4.7369e-07 7.3152e-31
4.7432e-07 5.9483e-31
4.7496e-07 3.9059e-31
4.7559e-07 2.5715e-31
4.7623e-07 2.0506e-31
4.7686e-07 1.4255e-31
4.775e-07 7.2406e-32
4.7814e-07 4.3983e-32
4.7878e-07 2.5824e-32
4.7941e-07 4.3682e-33
4.8005e-07 9.612e-34
4.807e-07 2.4568e-34
4.8134e-07 4.866e-33
4.8198e-07 1.5161e-32
4.8262e-07 3.3701e-32
4.8327e-07 1.2827e-31
4.8391e-07 3.3574e-31
4.8456e-07 1.03e-30
4.8521e-07 1.8134e-30
4.8585e-07 1.3176e-30
4.865e-07 9.0877e-31
4.8715e-07 1.2747e-30
4.878e-07 1.1904e-30
4.8846e-07 1.0495e-30
4.8911e-07 1.29e-30
4.8976e-07 9.1062e-31
4.9041e-07 6.8703e-31
4.9107e-07 6.3068e-31
4.9173e-07 4.3392e-31
4.9238e-07 3.6257e-31
4.9304e-07 2.5568e-31
4.937e-07 1.4172e-31
4.9436e-07 9.9598e-32
4.9502e-07 5.9972e-32
4.9568e-07 3.8849e-32
4.9634e-07 3.2756e-32
4.97e-07 4.6284e-32
4.9767e-07 1.1229e-31
4.9833e-07 3.7626e-31
4.99e-07 6.4023e-31
4.9966e-07 1.0071e-30
5.0033e-07 1.5264e-30
5.01e-07 2.28e-30
5.0167e-07 4.7753e-30
5.0234e-07 5.6298e-30
5.0301e-07 1.02e-29
5.0368e-07 2.3281e-29
5.0435e-07 2.1654e-29
5.0503e-07 9.4618e-30
5.057e-07 1.252e-29
5.0637e-07 1.1388e-29
5.0705e-07 1.3955e-29
5.0773e-07 1.3645e-29
5.0841e-07 1.0366e-29
5.0909e-07 7.9371e-30
5.0976e-07 6.9172e-30
5.1045e-07 4.7043e-30
5.1113e-07 3.2778e-30
5.1181e-07 2.188e-30
5.1249e-07 1.6388e-30
5.1318e-07 9.997e-31
5.1386e-07 5.4594e-31
5.1455e-07 3.5097e-31
5.1524e-07 3.0043e-31
5.1592e-07 2.2152e-31
5.1661e-07 1.9512e-31
5.173e-07 1.5387e-31
5.1799e-07 1.3078e-31
5.1869e-07 1.086e-31
5.1938e-07 1.0541e-31
5.2007e-07 7.7875e-32
5.2077e-07 6.7642e-32
5.2146e-07 7.5026e-32
5.2216e-07 1.2184e-31
5.2285e-07 2.4229e-31
5.2355e-07 9.224e-31
5.2425e-07 2.0386e-30
5.2495e-07 1.824e-30
5.2565e-07 8.2552e-31
5.2635e-07 6.9655e-31
5.2706e-07 1.4762e-30
5.2776e-07 9.1558e-31
5.2847e-07 8.279e-31
5.2917e-07 1.0096e-30
5.2988e-07 9.7466e-31
5.3059e-07 1.0044e-30
5.3129e-07 7.0983e-31
5.32e-07 5.7783e-31
5.3271e-07 4.9028e-31
5.3343e-07 2.9581e-31
5.3414e-07 2.6262e-31
5.3485e-07 3.3383e-31
5.3557e-07 4.1931e-31
5.3628e-07 5.5275e-31
5.37e-07 6.9837e-31
5.3771e-07 9.6603e-31
5.3843e-07 1.3672e-30
5.3915e-07 2.0289e-30
5.3987e-07 3.6282e-30
5.4059e-07 7.02e-30
5.4131e-07 1.1145e-29
5.4204e-07 9.3597e-30
5.4276e-07 6.5072e-30
5.4349e-07 8.3952e-30
5.4421e-07 6.9511e-30
5.4494e-07 6.5883e-30
5.4567e-07 7.9878e-30
5.4639e-07 9.9027e-30
5.4712e-07 6.039e-30
5.4785e-07 4.405e-30
5.4859e-07 3.1005e-30
5.4932e-07 3.0797e-30
5.5005e-07 2.8069e-30
5.5079e-07 1.8538e-30
5.5152e-07 1.4183e-30
5.5226e-07 8.1446e-31
5.53e-07 5.7036e-31
5.5373e-07 3.743e-31
5.5447e-07 3.0053e-31
5.5521e-07 2.152e-31
5.5596e-07 1.1435e-31
5.567e-07 4.3704e-32
5.5744e-07 1.0785e-31
5.5819e-07 1.8306e-31
5.5893e-07 2.7773e-31
5.5968e-07 3.4627e-31
5.6042e-07 5.0199e-31
5.6117e-07 5.5173e-31
5.6192e-07 5.6983e-31
5.6267e-07 7.3916e-31
5.6342e-07 4.6465e-31
5.6418e-07 6.1216e-31
5.6493e-07 6.7152e-31
5.6568e-07 7.4623e-31
5.6644e-07 1.5359e-30
5.672e-07 3.0471e-30
5.6795e-07 8.6191e-30
5.6871e-07 1.9447e-29
5.6947e-07 1.9872e-29
5.7023e-07 1.4685e-29
5.7099e-07 5.9947e-30
5.7176e-07 1.0674e-29
5.7252e-07 1.3507e-29
5.7328e-07 1.1344e-29
5.7405e-07 1.1838e-29
5.7482e-07 1.2068e-29
5.7558e-07 9.3374e-30
5.7635e-07 7.9908e-30
5.7712e-07 8.0469e-30
5.7789e-07 6.1389e-30
5.7866e-07 4.0222e-30
5.7944e-07 3.4154e-30
5.8021e-07 2.5975e-30
5.8098e-07 2.6197e-30
5.8176e-07 2.8527e-30
5.8254e-07 2.9892e-30
5.8331e-07 3.5827e-30
5.8409e-07 4.1474e-30
5.8487e-07 4.5699e-30
5.8565e-07 6.0439e-30
5.8644e-07 1.1179e-29
5.8722e-07 2.0404e-29
5.88e-07 4.8762e-29
5.8879e-07 9.4692e-29
5.8958e-07 1.0053e-28
5.9036e-07 9.2263e-29
5.9115e-07 7.5551e-29
5.9194e-07 9.4565e-29
5.9273e-07 7.6233e-29
5.9352e-07 4.7303e-29
5.9431e-07 9.7548e-29
5.9511e-07 8.7185e-29
5.959e-07 5.4687e-29
5.967e-07 5.0883e-29
5.975e-07 5.0042e-29
5.9829e-07 3.5441e-29
5.9909e-07 3.1109e-29
5.9989e-07 2.1938e-29
6.0069e-07 1.3894e-29
6.015e-07 1.0285e-29
6.023e-07 6.5937e-30
6.031e-07 4.7798e-30
6.0391e-07 2.5447e-30
6.0471e-07 1.8248e-30
6.0552e-07 1.2619e-30
6.0633e-07 8.0886e-31
6.0714e-07 5.014e-31
6.0795e-07 3.8451e-31
6.0876e-07 2.7198e-31
6.0958e-07 1.8929e-31
6.1039e-07 1.4501e-31
6.112e-07 1.0285e-31
6.1202e-07 8.2925e-32
6.1284e-07 6.7116e-32
6.1366e-07 5.0863e-32
6.1448e-07 5.5798e-32
6.153e-07 6.8563e-32
6.1612e-07 6.5876e-32
6.1694e-07 8.3845e-32
6.1776e-07 1.0097e-31
6.1859e-07 1.4432e-31
6.1942e-07 1.4898e-31
6.2024e-07 1.6484e-31
6.2107e-07 1.7781e-31
6.219e-07 2.119e-31
6.2273e-07 2.6656e-31
6.2356e-07 3.8696e-31
6.2439e-07 6.6943e-31
6.2523e-07 1.662e-30
6.2606e-07 4.0245e-30
6.269e-07 9.1171e-30
6.2774e-07 1.5218e-29
6.2857e-07 1.5537e-29
6.2941e-07 1.2098e-29
6.3025e-07 5.675e-30
6.311e-07 4.5696e-30
6.3194e-07 1.3946e-29
6.3278e-07 1.083e-29
6.3363e-07 7.1003e-30
6.3447e-07 8.1653e-30
6.3532e-07 7.7841e-30
6.3617e-07 6.8876e-30
6.3702e-07 6.6759e-30
6.3787e-07 5.4036e-30
6.3872e-07 5.4398e-30
6.3957e-07 5.4716e-30
6.4043e-07 5.3957e-30
6.4128e-07 5.7854e-30
6.4214e-07 5.3186e-30
6.43e-07 6.3761e-30
6.4386e-07 7.7488e-30
6.4472e-07 1.1256e-29
6.4558e-07 2.0619e-29
6.4644e-07 4.3781e-29
6.473e-07 7.535e-29
6.4817e-07 8.8563e-29
6.4903e-07 6.9596e-29
6.499e-07 4.6989e-29
6.5077e-07 2.589e-29
6.5164e-07 8.0265e-29
6.5251e-07 4.9542e-29
6.5338e-07 3.1991e-29
6.5425e-07 3.582e-29
6.5512e-07 5.0916e-29
6.56e-07 4.1786e-29
6.5687e-07 3.7878e-29
6.5775e-07 3.4211e-29
6.5863e-07 2.2921e-29
6.5951e-07 1.3922e-29
6.6039e-07 1.2486e-29
6.6127e-07 6.8702e-30
6.6215e-07 4.0763e-30
6.6304e-07 4.3625e-30
6.6392e-07 3.5059e-30
6.6481e-07 3.4628e-30
6.657e-07 2.3494e-30
6.6659e-07 2.1199e-30
6.6748e-07 1.3688e-30
6.6837e-07 1.0085e-30
6.6926e-07 6.6318e-31
6.7015e-07 4.1985e-31
6.7105e-07 2.5506e-31
6.7195e-07 1.7908e-31
6.7284e-07 1.571e-31
6.7374e-07 1.0097e-31
6.7464e-07 1.2461e-31
6.7554e-07 1.2697e-31
6.7644e-07 2.2363e-31
6.7735e-07 3.0114e-31
6.7825e-07 4.9321e-31
6.7916e-07 5.9712e-31
6.8006e-07 1.0185e-30
6.8097e-07 1.3409e-30
6.8188e-07 1.9688e-30
6.8279e-07 2.7702e-30
6.837e-07 2.7752e-30
6.8462e-07 3.7859e-30
6.8553e-07 3.3032e-30
6.8645e-07 4.9833e-30
6.8736e-07 5.0066e-30
6.8828e-07 2.7191e-30
6.892e-07 3.7198e-30
6.9012e-07 6.7697e-30
6.9104e-07 1.4067e-29
6.9196e-07 3.925e-29
6.9289e-07 1.0879e-28
6.9381e-07 1.6678e-28
6.9474e-07 1.7461e-28
6.9567e-07 1.4394e-28
6.966e-07 8.0399e-29
6.9753e-07 3.5725e-29
6.9846e-07 7.4392e-29
6.9939e-07 1.2888e-28
7.0032e-07 1.1821e-28
7.0126e-07 1.102e-28
7.022e-07 1.1599e-28
7.0313e-07 9.1898e-29
7.0407e-07 7.4039e-29
7.0501e-07 6.8712e-29
7.0595e-07 6.9631e-29
7.069e-07 5.4853e-29
7.0784e-07 4.9791e-29
7.0879e-07 4.043e-29
7.0973e-07 3.967e-29
7.1068e-07 3.7833e-29
7.1163e-07 2.9467e-29
7.1258e-07 3.1305e-29
7.1353e-07 3.7362e-29
7.1448e-07 4.9438e-29
7.1544e-07 7.1466e-29
7.1639e-07 1.7739e-28
7.1735e-07 4.9315e-28
7.1831e-07 5.8364e-28
7.1927e-07 6.0232e-28
7.2023e-07 5.8445e-28
7.2119e-07 3.0019e-28
7.2215e-07 1.5872e-28
7.2312e-07 3.0529e-28
7.2408e-07 4.778e-28
7.2505e-07 4.4773e-28
7.2602e-07 4.0253e-28
7.2699e-07 3.898e-28
7.2796e-07 4.1595e-28
7.2893e-07 3.4104e-28
7.299e-07 3.595e-28
7.3088e-07 3.6036e-28
7.3185e-07 2.7862e-28
7.3283e-07 1.6133e-28
7.3381e-07 1.2189e-28
7.3479e-07 1.0663e-28
7.3577e-07 1.0699e-28
7.3675e-07 1.1309e-28
7.3774e-07 7.0388e-29
7.3872e-07 6.7318e-29
7.3971e-07 5.6229e-29
7.407e-07 3.0303e-29
7.4169e-07 2.3887e-29
7.4268e-07 1.8439e-29
7.4367e-07 8.9736e-30
7.4466e-07 7.2281e-30
7.4565e-07 5.489e-30
7.4665e-07 3.7258e-30
7.4765e-07 2.9095e-30
7.4865e-07 2.0823e-30
7.4965e-07 1.7999e-30
7.5065e-07 1.8816e-30
7.5165e-07 1.3294e-30
7.5265e-07 8.4912e-31
7.5366e-07 7.0074e-31
7.5466e-07 6.1272e-31
7.5567e-07 5.2848e-31
7.5668e-07 3.6899e-31
7.5769e-07 5.9089e-31
7.587e-07 6.2879e-31
7.5972e-07 3.965e-31
7.6073e-07 3.1019e-31
7.6175e-07 2.7591e-31
7.6276e-07 1.38e-31
7.6378e-07 1.3555e-31
7.648e-07 7.8168e-32
7.6582e-07 5.7436e-32
7.6685e-07 4.1912e-32
7.6787e-07 3.1107e-32
7.689e-07 3.7397e-32
7.6992e-07 5.867e-32
7.7095e-07 7.6615e-32
7.7198e-07 1.3598e-31
7.7301e-07 2.0586e-31
7.7404e-07 2.2911e-31
7.7508e-07 2.9017e-31
7.7611e-07 3.5213e-31
7.7715e-07 3.424e-31
7.7819e-07 4.7748e-31
7.7922e-07 8.3357e-31
7.8026e-07 9.8853e-31
7.8131e-07 1.1505e-30
7.8235e-07 1.9076e-30
7.8339e-07 3.3639e-30
7.8444e-07 7.0944e-30
7.8549e-07 9.8933e-30
7.8654e-07 2.561e-29
7.8759e-07 4.0173e-29
7.8864e-07 5.3423e-29
7.8969e-07 8.079e-29
7.9075e-07 7.0651e-29
7.918e-07 5.77e-29
7.9286e-07 5.9375e-29
7.9392e-07 2.2457e-29
7.9498e-07 2.7657e-29
7.9604e-07 7.9003e-29
7.971e-07 6.9903e-29
7.9817e-07 4.4824e-29
7.9923e-07 4.6638e-29
8.003e-07 7.1278e-29
8.0137e-07 7.9704e-29
8.0244e-07 7.647e-29
8.0351e-07 7.4059e-29
8.0458e-07 6.1823e-29
8.0566e-07 3.5071e-29
8.0673e-07 3.6337e-29
8.0781e-07 3.7958e-29
8.0889e-07 5.4971e-29
8.0997e-07 7.5387e-29
8.1105e-07 1.1962e-28
8.1213e-07 1.5903e-28
8.1322e-07 2.9633e-28
8.1431e-07 4.2812e-28
8.1539e-07 5.2638e-28
8.1648e-07 6.2248e-28
8.1757e-07 5.3076e-28
8.1866e-07 4.6114e-28
8.1976e-07 4.0291e-28
8.2085e-07 1.8921e-28
8.2195e-07 2.7138e-28
8.2304e-07 7.9729e-28
8.2414e-07 3.5778e-28
8.2524e-07 1.89e-28
8.2635e-07 2.385e-28
8.2745e-07 3.089e-28
8.2855e-07 3.6527e-28
8.2966e-07 3.2584e-28
8.3077e-07 2.7339e-28
8.3188e-07 2.8691e-28
8.3299e-07 2.2772e-28
8.341e-07 1.9046e-28
8.3522e-07 1.3066e-28
8.3633e-07 1.3282e-28
8.3745e-07 1.0543e-28
8.3857e-07 7.4917e-29
8.3969e-07 5.366e-29
8.4081e-07 5.7727e-29
8.4193e-07 4.6885e-29
8.4305e-07 2.9614e-29
8.4418e-07 3.2966e-29
8.4531e-07 1.6501e-29
8.4644e-07 1.3348e-29
8.4757e-07 1.1506e-29
8.487e-07 1.5144e-29
8.4983e-07 1.4614e-29
8.5097e-07 2.0231e-29
8.521e-07 2.1375e-29
8.5324e-07 1.3819e-29
8.5438e-07 1.6442e-29
8.5552e-07 1.2015e-29
8.5666e-07 7.9095e-30
8.5781e-07 8.4499e-30
8.5895e-07 5.5903e-30
8.601e-07 3.5859e-30
8.6125e-07 2.6191e-30
8.624e-07 1.9418e-30
8.6355e-07 1.1723e-30
8.647e-07 8.6445e-31
8.6586e-07 5.5421e-31
8.6701e-07 4.1515e-31
8.6817e-07 4.7933e-31
8.6933e-07 4.0438e-31
8.7049e-07 4.8039e-31
8.7165e-07 5.0894e-31
8.7282e-07 4.9517e-31
8.7398e-07 1.1053e-30
8.7515e-07 1.3851e-30
8.7632e-07 2.0468e-30
8.7749e-07 3.0566e-30
8.7866e-07 5.6618e-30
8.7983e-07 4.6301e-30
8.8101e-07 7.6411e-30
8.8218e-07 1.0606e-29
8.8336e-07 9.5639e-30
8.8454e-07 7.2082e-30
8.8572e-07 2.021e-29
8.8691e-07 1.8151e-29
8.8809e-07 2.303e-29
8.8928e-07 1.5559e-29
8.9046e-07 2.3304e-29
8.9165e-07 3.6264e-29
8.9284e-07 1.0537e-28
8.9404e-07 1.8932e-28
8.9523e-07 3.3921e-28
8.9642e-07 5.0969e-28
8.9762e-07 5.5828e-28
8.9882e-07 7.8015e-28
9.0002e-07 6.8073e-28
9.0122e-07 6.5076e-28
9.0243e-07 5.5472e-28
9.0363e-07 3.0326e-28
9.0484e-07 2.326e-28
9.0605e-07 3.3589e-28
9.0726e-07 5.941e-28
9.0847e-07 6.548e-28
9.0968e-07 6.5189e-28
9.1089e-07 6.0234e-28
9.1211e-07 5.285e-28
9.1333e-07 7.9456e-28
9.1455e-07 6.0109e-28
9.1577e-07 7.7641e-28
9.1699e-07 6.1596e-28
9.1822e-07 6.4643e-28
9.1944e-07 3.8886e-28
9.2067e-07 2.8478e-28
9.219e-07 3.4837e-28
9.2313e-07 3.3333e-28
9.2436e-07 4.3651e-28
9.256e-07 3.7622e-28
9.2683e-07 4.0358e-28
9.2807e-07 7.9907e-28
9.2931e-07 1.1726e-27
9.3055e-07 1.6104e-27
9.3179e-07 2.2402e-27
9.3304e-07 2.8468e-27
9.3429e-07 3.4268e-27
9.3553e-07 2.638e-27
9.3678e-07 2.9347e-27
9.3803e-07 2.7511e-27
9.3929e-07 1.4376e-27
9.4054e-07 1.4376e-27
9.418e-07 1.6334e-27
9.4305e-07 1.9708e-27
9.4431e-07 2.3523e-27
9.4557e-07 2.1588e-27
9.4684e-07 2.0489e-27
9.481e-07 1.9259e-27
9.4937e-07 1.8538e-27
9.5e-07 2.1486e-27