File: material/gas/smooth_input/h2o_uv_vis_toa_T0_P0.txt
2.8e-07 -0
2.8047e-07 -0
2.8094e-07 -0
2.814e-07 -0
2.8187e-07 -0
2.8234e-07 -0
2.8282e-07 -0
2.8329e-07 -0
2.8376e-07 -0
2.8423e-07 -0
2.8471e-07 -0
2.8518e-07 -0
2.8566e-07 -0
2.8614e-07 -0
2.8661e-07 -0
2.8709e-07 -0
2.8757e-07 -0
2.8805e-07 -0
2.8853e-07 -0
2.8901e-07 -0
2.895e-07 -0
2.8998e-07 -0
2.9046e-07 -0
2.9095e-07 -0
2.9143e-07 -0
2.9192e-07 -0
2.9241e-07 -0
2.929e-07 -0
2.9339e-07 -0
2.9388e-07 -0
2.9437e-07 -0
2.9486e-07 -0
2.9535e-07 -0
2.9584e-07 -0
2.9634e-07 -0
2.9683e-07 -0
2.9733e-07 -0
2.9782e-07 -0
2.9832e-07 -0
2.9882e-07 -0
2.9932e-07 -0
2.9982e-07 -0
3.0032e-07 -0
3.0082e-07 -0
3.0132e-07 -0
3.0182e-07 -0
3.0233e-07 -0
3.0283e-07 -0
3.0334e-07 -0
3.0384e-07 -0
3.0435e-07 -0
3.0486e-07 -0
3.0537e-07 -0
3.0588e-07 -0
3.0639e-07 -0
3.069e-07 -0
3.0741e-07 -0
3.0792e-07 -0
3.0844e-07 -0
3.0895e-07 -0
3.0947e-07 -0
3.0998e-07 -0
3.105e-07 -0
3.1102e-07 -0
3.1154e-07 -0
3.1206e-07 -0
3.1258e-07 -0
3.131e-07 -0
3.1362e-07 -0
3.1415e-07 -0
3.1467e-07 -0
3.152e-07 -0
3.1572e-07 -0
3.1625e-07 -0
3.1678e-07 -0
3.1731e-07 -0
3.1784e-07 -0
3.1837e-07 -0
3.189e-07 -0
3.1943e-07 -0
3.1996e-07 -0
3.205e-07 -0
3.2103e-07 -0
3.2157e-07 -0
3.2211e-07 -0
3.2264e-07 -0
3.2318e-07 -0
3.2372e-07 -0
3.2426e-07 -0
3.248e-07 -0
3.2535e-07 -0
3.2589e-07 -0
3.2643e-07 -0
3.2698e-07 -0
3.2752e-07 -0
3.2807e-07 -0
3.2862e-07 -0
3.2917e-07 -0
3.2972e-07 -0
3.3027e-07 -0
3.3082e-07 -0
3.3137e-07 -0
3.3192e-07 -0
3.3248e-07 -0
3.3303e-07 -0
3.3359e-07 -0
3.3414e-07 -0
3.347e-07 -0
3.3526e-07 -0
3.3582e-07 -0
3.3638e-07 -0
3.3694e-07 -0
3.375e-07 -0
3.3807e-07 -0
3.3863e-07 -0
3.392e-07 -0
3.3976e-07 -0
3.4033e-07 -0
3.409e-07 -0
3.4147e-07 -0
3.4204e-07 -0
3.4261e-07 -0
3.4318e-07 -0
3.4375e-07 -0
3.4433e-07 -0
3.449e-07 -0
3.4548e-07 -0
3.4605e-07 -0
3.4663e-07 -0
3.4721e-07 -0
3.4779e-07 -0
3.4837e-07 -0
3.4895e-07 -0
3.4953e-07 -0
3.5012e-07 -0
3.507e-07 -0
3.5129e-07 -0
3.5187e-07 -0
3.5246e-07 -0
3.5305e-07 -0
3.5364e-07 -0
3.5423e-07 -0
3.5482e-07 -0
3.5541e-07 -0
3.5601e-07 -0
3.566e-07 -0
3.572e-07 -0
3.5779e-07 -0
3.5839e-07 -0
3.5899e-07 -0
3.5959e-07 -0
3.6019e-07 -0
3.6079e-07 -0
3.6139e-07 -0
3.6199e-07 -0
3.626e-07 -0
3.632e-07 -0
3.6381e-07 -0
3.6442e-07 -0
3.6502e-07 -0
3.6563e-07 -0
3.6624e-07 -0
3.6686e-07 -0
3.6747e-07 -0
3.6808e-07 -0
3.687e-07 -0
3.6931e-07 -0
3.6993e-07 -0
3.7054e-07 -0
3.7116e-07 -0
3.7178e-07 -0
3.724e-07 -0
3.7302e-07 -0
3.7365e-07 -0
3.7427e-07 -0
3.749e-07 -0
3.7552e-07 -0
3.7615e-07 -0
3.7678e-07 -0
3.7741e-07 -0
3.7804e-07 -0
3.7867e-07 -0
3.793e-07 -0
3.7993e-07 -0
3.8057e-07 -0
3.812e-07 -0
3.8184e-07 -0
3.8247e-07 -0
3.8311e-07 -0
3.8375e-07 -0
3.8439e-07 -0
3.8503e-07 -0
3.8568e-07 2.8015e-38
3.8632e-07 4.3611e-37
3.8697e-07 2.0876e-36
3.8761e-07 7.2203e-36
3.8826e-07 2.4924e-35
3.8891e-07 8.4272e-33
3.8956e-07 2.7337e-32
3.9021e-07 7.7102e-32
3.9086e-07 1.0517e-31
3.9151e-07 7.4035e-32
3.9216e-07 5.072e-32
3.9282e-07 7.5095e-32
3.9347e-07 4.6605e-32
3.9413e-07 1.0169e-32
3.9479e-07 3.1603e-32
3.9545e-07 4.8336e-32
3.9611e-07 1.3377e-31
3.9677e-07 4.3631e-31
3.9743e-07 8.1187e-31
3.9809e-07 3.7609e-31
3.9876e-07 4.5623e-31
3.9942e-07 4.5921e-31
4.0009e-07 3.8783e-31
4.0076e-07 2.6949e-31
4.0143e-07 1.652e-31
4.021e-07 1.3861e-31
4.0277e-07 8.6424e-32
4.0344e-07 6.0771e-32
4.0411e-07 4.8984e-32
4.0479e-07 3.6032e-32
4.0546e-07 2.1431e-32
4.0614e-07 1.0094e-32
4.0682e-07 4.4653e-33
4.075e-07 5.1022e-33
4.0818e-07 6.4146e-33
4.0886e-07 8.1943e-33
4.0954e-07 2.4021e-35
4.1023e-07 7.7561e-36
4.1091e-07 1.8412e-33
4.116e-07 2.1198e-33
4.1228e-07 1.7221e-32
4.1297e-07 3.5615e-32
4.1366e-07 3.2073e-32
4.1435e-07 6.3078e-32
4.1504e-07 1.9401e-31
4.1574e-07 2.7312e-31
4.1643e-07 5.3354e-31
4.1712e-07 3.6829e-31
4.1782e-07 2.1803e-31
4.1852e-07 2.3733e-31
4.1922e-07 2.0054e-31
4.1992e-07 1.2413e-31
4.2062e-07 6.8526e-32
4.2132e-07 4.1875e-32
4.2202e-07 2.4856e-32
4.2273e-07 1.1049e-32
4.2343e-07 5.0943e-33
4.2414e-07 2.3439e-33
4.2485e-07 4.0977e-32
4.2556e-07 7.5034e-32
4.2627e-07 1.4865e-31
4.2698e-07 6.0406e-32
4.2769e-07 8.1689e-32
4.2841e-07 6.1646e-32
4.2912e-07 7.2799e-32
4.2984e-07 3.9207e-32
4.3055e-07 2.2947e-32
4.3127e-07 6.9057e-33
4.3199e-07 4.7766e-33
4.3271e-07 1.9872e-33
4.3344e-07 2.8578e-34
4.3416e-07 3.6992e-36
4.3488e-07 2.1172e-35
4.3561e-07 6.05e-33
4.3634e-07 2.8229e-33
4.3707e-07 6.3371e-35
4.3779e-07 1.1296e-32
4.3853e-07 3.5856e-32
4.3926e-07 1.3154e-31
4.3999e-07 2.1306e-31
4.4073e-07 3.2445e-31
4.4146e-07 9.6775e-31
4.422e-07 1.714e-30
4.4294e-07 3.4628e-30
4.4368e-07 1.3197e-30
4.4442e-07 1.6205e-30
4.4516e-07 1.8461e-30
4.459e-07 1.7805e-30
4.4664e-07 1.1126e-30
4.4739e-07 8.4834e-31
4.4814e-07 4.9353e-31
4.4889e-07 3.2743e-31
4.4963e-07 1.5609e-31
4.5038e-07 9.0909e-32
4.5114e-07 4.8248e-32
4.5189e-07 2.0042e-32
4.5264e-07 5.4057e-32
4.534e-07 5.9818e-32
4.5416e-07 3.7669e-32
4.5491e-07 6.3935e-32
4.5567e-07 6.1958e-32
4.5643e-07 8.3013e-32
4.572e-07 6.9455e-32
4.5796e-07 4.451e-32
4.5872e-07 4.805e-32
4.5949e-07 3.3588e-32
4.6026e-07 2.6681e-32
4.6102e-07 1.0028e-32
4.6179e-07 2.5859e-33
4.6256e-07 5.6739e-33
4.6334e-07 1.2998e-33
4.6411e-07 9.7173e-33
4.6489e-07 8.1324e-33
4.6566e-07 3.6883e-32
4.6644e-07 2.0975e-31
4.6722e-07 5.8174e-31
4.68e-07 4.6244e-31
4.6878e-07 7.7171e-31
4.6956e-07 1.3916e-30
4.7034e-07 1.0141e-30
4.7113e-07 8.9979e-31
4.7192e-07 6.4677e-31
4.727e-07 7.9459e-31
4.7349e-07 6.5328e-31
4.7428e-07 4.3526e-31
4.7507e-07 2.6261e-31
4.7587e-07 1.7377e-31
4.7666e-07 1.1851e-31
4.7746e-07 5.8132e-32
4.7825e-07 2.6733e-32
4.7905e-07 1.1101e-32
4.7985e-07 6.0047e-34
4.8065e-07 9.7501e-35
4.8146e-07 4.3033e-33
4.8226e-07 1.5662e-32
4.8306e-07 6.1884e-32
4.8387e-07 2.3542e-31
4.8468e-07 9.0768e-31
4.8549e-07 1.2704e-30
4.863e-07 6.9518e-31
4.8711e-07 9.2175e-31
4.8792e-07 8.7541e-31
4.8874e-07 8.2477e-31
4.8955e-07 8.0283e-31
4.9037e-07 5.1089e-31
4.9119e-07 4.3928e-31
4.9201e-07 2.8821e-31
4.9283e-07 2.1901e-31
4.9365e-07 1.0997e-31
4.9448e-07 6.6899e-32
4.953e-07 3.483e-32
4.9613e-07 2.5719e-32
4.9696e-07 3.2965e-32
4.9779e-07 1.0845e-31
4.9862e-07 3.5939e-31
4.9945e-07 6.4358e-31
5.0028e-07 1.1108e-30
5.0112e-07 1.9298e-30
5.0195e-07 3.8208e-30
5.0279e-07 5.755e-30
5.0363e-07 1.6297e-29
5.0447e-07 1.4168e-29
5.0531e-07 6.789e-30
5.0616e-07 9.2021e-30
5.07e-07 9.7563e-30
5.0785e-07 9.6855e-30
5.087e-07 6.7194e-30
5.0954e-07 5.4672e-30
5.104e-07 3.4613e-30
5.1125e-07 2.265e-30
5.121e-07 1.4419e-30
5.1296e-07 8.7176e-31
5.1381e-07 4.2588e-31
5.1467e-07 2.5504e-31
5.1553e-07 1.9482e-31
5.1639e-07 1.4959e-31
5.1725e-07 1.1345e-31
5.1811e-07 9.0679e-32
5.1898e-07 7.9138e-32
5.1984e-07 6.2385e-32
5.2071e-07 4.719e-32
5.2158e-07 6.0519e-32
5.2245e-07 9.8368e-32
5.2332e-07 4.5878e-31
5.242e-07 1.4498e-30
5.2507e-07 1.2277e-30
5.2595e-07 4.0057e-31
5.2683e-07 9.8361e-31
5.2771e-07 6.9007e-31
5.2859e-07 6.6194e-31
5.2947e-07 7.0199e-31
5.3035e-07 7.4383e-31
5.3124e-07 5.543e-31
5.3213e-07 4.1043e-31
5.3301e-07 2.9799e-31
5.339e-07 1.9469e-31
5.3479e-07 2.3754e-31
5.3569e-07 3.19e-31
5.3658e-07 4.4942e-31
5.3748e-07 6.0429e-31
5.3837e-07 1.0081e-30
5.3927e-07 1.6492e-30
5.4017e-07 3.2134e-30
5.4107e-07 7.6068e-30
5.4198e-07 6.9635e-30
5.4288e-07 4.5951e-30
5.4379e-07 6.3768e-30
5.447e-07 4.5749e-30
5.4561e-07 5.6663e-30
5.4652e-07 7.0145e-30
5.4743e-07 3.6917e-30
5.4834e-07 2.6207e-30
5.4926e-07 2.2447e-30
5.5017e-07 1.9204e-30
5.5109e-07 1.3048e-30
5.5201e-07 6.8735e-31
5.5293e-07 4.3224e-31
5.5386e-07 2.5383e-31
5.5478e-07 2.0688e-31
5.5571e-07 1.0759e-31
5.5663e-07 3.4716e-32
5.5756e-07 8.48e-32
5.5849e-07 1.6775e-31
5.5943e-07 2.2827e-31
5.6036e-07 3.5867e-31
5.613e-07 3.9351e-31
5.6223e-07 4.7552e-31
5.6317e-07 4.2528e-31
5.6411e-07 4.1195e-31
5.6505e-07 5.0614e-31
5.66e-07 6.9261e-31
5.6694e-07 1.7637e-30
5.6789e-07 5.801e-30
5.6883e-07 1.4654e-29
5.6978e-07 1.3584e-29
5.7074e-07 5.9135e-30
5.7169e-07 7.3384e-30
5.7264e-07 9.5713e-30
5.736e-07 7.706e-30
5.7456e-07 9.375e-30
5.7551e-07 6.895e-30
5.7647e-07 5.757e-30
5.7744e-07 5.7971e-30
5.784e-07 3.2741e-30
5.7937e-07 2.5095e-30
5.8033e-07 1.9441e-30
5.813e-07 1.9243e-30
5.8227e-07 2.1692e-30
5.8324e-07 2.5713e-30
5.8422e-07 3.0393e-30
5.8519e-07 3.5768e-30
5.8617e-07 6.7225e-30
5.8715e-07 1.3526e-29
5.8813e-07 3.9939e-29
5.8911e-07 7.1205e-29
5.9009e-07 6.9396e-29
5.9108e-07 5.2536e-29
5.9206e-07 6.8269e-29
5.9305e-07 4.1467e-29
5.9404e-07 5.2106e-29
5.9503e-07 6.3312e-29
5.9603e-07 3.7179e-29
5.9702e-07 3.885e-29
5.9802e-07 2.8351e-29
5.9902e-07 2.2177e-29
6.0002e-07 1.5354e-29
6.0102e-07 8.5398e-30
6.0202e-07 6.0074e-30
6.0303e-07 3.5577e-30
6.0403e-07 1.7639e-30
6.0504e-07 1.1252e-30
6.0605e-07 7.0811e-31
6.0706e-07 3.7261e-31
6.0808e-07 2.619e-31
6.0909e-07 1.7618e-31
6.1011e-07 1.1612e-31
6.1113e-07 7.4259e-32
6.1215e-07 6.1005e-32
6.1317e-07 4.0208e-32
6.1419e-07 3.8979e-32
6.1522e-07 4.9299e-32
6.1624e-07 5.0054e-32
6.1727e-07 6.0695e-32
6.183e-07 9.7329e-32
6.1933e-07 1.0472e-31
6.2037e-07 1.2097e-31
6.214e-07 1.3383e-31
6.2244e-07 1.7762e-31
6.2348e-07 2.7328e-31
6.2452e-07 5.7405e-31
6.2556e-07 1.714e-30
6.2661e-07 5.1928e-30
6.2765e-07 1.0071e-29
6.287e-07 1.0812e-29
6.2975e-07 7.1397e-30
6.308e-07 2.1383e-30
6.3185e-07 9.4731e-30
6.3291e-07 7.1182e-30
6.3397e-07 5.2253e-30
6.3502e-07 6.0251e-30
6.3608e-07 4.8948e-30
6.3715e-07 4.8626e-30
6.3821e-07 3.834e-30
6.3927e-07 4.0945e-30
6.4034e-07 4.0295e-30
6.4141e-07 4.0927e-30
6.4248e-07 4.0552e-30
6.4355e-07 5.4227e-30
6.4463e-07 7.8197e-30
6.457e-07 1.6837e-29
6.4678e-07 3.8293e-29
6.4786e-07 6.1771e-29
6.4894e-07 4.9389e-29
6.5003e-07 2.7115e-29
6.5111e-07 3.1136e-29
6.522e-07 4.6797e-29
6.5329e-07 2.0968e-29
6.5438e-07 2.6407e-29
6.5547e-07 3.4184e-29
6.5656e-07 2.6152e-29
6.5766e-07 2.3527e-29
6.5876e-07 1.4929e-29
6.5986e-07 9.4757e-30
6.6096e-07 5.8752e-30
6.6206e-07 3.2853e-30
6.6317e-07 3.1351e-30
6.6427e-07 2.7434e-30
6.6538e-07 1.9339e-30
6.6649e-07 1.5912e-30
6.676e-07 8.9107e-31
6.6872e-07 6.4968e-31
6.6983e-07 3.3349e-31
6.7095e-07 1.9688e-31
6.7207e-07 1.3068e-31
6.7319e-07 8.5495e-32
6.7432e-07 8.5433e-32
6.7544e-07 8.8247e-32
6.7657e-07 1.7505e-31
6.777e-07 2.4656e-31
6.7883e-07 4.1645e-31
6.7996e-07 6.9951e-31
6.811e-07 9.8087e-31
6.8224e-07 1.7511e-30
6.8338e-07 1.8815e-30
6.8452e-07 2.6934e-30
6.8566e-07 2.4647e-30
6.868e-07 4.0567e-30
6.8795e-07 2.2962e-30
6.891e-07 2.4596e-30
6.9025e-07 5.2254e-30
6.914e-07 1.3557e-29
6.9255e-07 5.4644e-29
6.9371e-07 1.0429e-28
6.9487e-07 1.0482e-28
6.9603e-07 7.9977e-29
6.9719e-07 2.7523e-29
6.9835e-07 4.4801e-29
6.9952e-07 8.0243e-29
7.0069e-07 7.6312e-29
7.0186e-07 7.5271e-29
7.0303e-07 6.1775e-29
7.042e-07 4.644e-29
7.0538e-07 5.0361e-29
7.0655e-07 4.1114e-29
7.0773e-07 3.4974e-29
7.0891e-07 2.8896e-29
7.101e-07 2.8785e-29
7.1128e-07 2.3282e-29
7.1247e-07 2.2724e-29
7.1366e-07 2.5963e-29
7.1485e-07 3.9912e-29
7.1604e-07 7.4171e-29
7.1724e-07 2.6283e-28
7.1844e-07 3.2461e-28
7.1964e-07 3.5036e-28
7.2084e-07 2.4072e-28
7.2204e-07 9.7412e-29
7.2324e-07 1.9204e-28
7.2445e-07 2.6626e-28
7.2566e-07 2.5463e-28
7.2687e-07 2.2852e-28
7.2809e-07 2.3245e-28
7.293e-07 2.1797e-28
7.3052e-07 2.1598e-28
7.3174e-07 1.8277e-28
7.3296e-07 1.0311e-28
7.3418e-07 6.8284e-29
7.3541e-07 7.2785e-29
7.3664e-07 7.6635e-29
7.3787e-07 4.9539e-29
7.391e-07 4.4432e-29
7.4033e-07 2.6319e-29
7.4157e-07 1.768e-29
7.428e-07 1.218e-29
7.4404e-07 5.8338e-30
7.4529e-07 4.1833e-30
7.4653e-07 2.8047e-30
7.4778e-07 2.0291e-30
7.4902e-07 1.3444e-30
7.5027e-07 1.3249e-30
7.5153e-07 9.9357e-31
7.5278e-07 5.6017e-31
7.5404e-07 5.2091e-31
7.553e-07 3.7753e-31
7.5656e-07 2.8019e-31
7.5782e-07 4.4765e-31
7.5908e-07 3.7476e-31
7.6035e-07 2.5685e-31
7.6162e-07 1.9827e-31
7.6289e-07 1.0147e-31
7.6417e-07 9.1583e-32
7.6544e-07 4.3846e-32
7.6672e-07 3.1293e-32
7.68e-07 2.297e-32
7.6928e-07 3.1683e-32
7.7056e-07 4.5751e-32
7.7185e-07 9.4365e-32
7.7314e-07 1.3801e-31
7.7443e-07 1.7382e-31
7.7572e-07 2.5195e-31
7.7702e-07 2.2827e-31
7.7831e-07 3.4423e-31
7.7961e-07 6.6148e-31
7.8091e-07 7.2982e-31
7.8222e-07 1.2654e-30
7.8352e-07 2.6289e-30
7.8483e-07 6.0123e-30
7.8614e-07 1.226e-29
7.8745e-07 2.5978e-29
7.8877e-07 3.8352e-29
7.9008e-07 5.1658e-29
7.914e-07 4.0646e-29
7.9272e-07 3.7341e-29
7.9405e-07 1.4361e-29
7.9537e-07 2.9205e-29
7.967e-07 5.6437e-29
7.9803e-07 2.9989e-29
7.9936e-07 3.4972e-29
8.007e-07 5.1576e-29
8.0203e-07 5.1661e-29
8.0337e-07 5.0958e-29
8.0471e-07 4.1259e-29
8.0606e-07 2.3304e-29
8.074e-07 2.518e-29
8.0875e-07 3.7358e-29
8.101e-07 5.4508e-29
8.1145e-07 9.0091e-29
8.1281e-07 1.475e-28
8.1416e-07 2.4159e-28
8.1552e-07 3.0661e-28
8.1688e-07 3.2013e-28
8.1825e-07 2.8283e-28
8.1961e-07 2.1871e-28
8.2098e-07 1.1028e-28
8.2235e-07 2.5724e-28
8.2372e-07 3.1943e-28
8.251e-07 1.1252e-28
8.2647e-07 1.2912e-28
8.2785e-07 2.0056e-28
8.2924e-07 1.8813e-28
8.3062e-07 1.5712e-28
8.3201e-07 1.5815e-28
8.334e-07 1.32e-28
8.3479e-07 8.8466e-29
8.3618e-07 8.4637e-29
8.3758e-07 6.6082e-29
8.3897e-07 4.5061e-29
8.4037e-07 3.6793e-29
8.4178e-07 3.3813e-29
8.4318e-07 2.1647e-29
8.4459e-07 1.8066e-29
8.46e-07 1.0033e-29
8.4741e-07 7.76e-30
8.4883e-07 1.0852e-29
8.5024e-07 1.0668e-29
8.5166e-07 1.617e-29
8.5308e-07 1.0029e-29
8.5451e-07 1.1019e-29
8.5593e-07 6.9497e-30
8.5736e-07 6.5402e-30
8.5879e-07 3.8603e-30
8.6023e-07 2.5691e-30
8.6166e-07 1.5832e-30
8.631e-07 1.1524e-30
8.6454e-07 6.243e-31
8.6598e-07 3.6772e-31
8.6743e-07 3.3273e-31
8.6888e-07 3.0096e-31
8.7033e-07 3.293e-31
8.7178e-07 3.4794e-31
8.7324e-07 5.2533e-31
8.7469e-07 9.0233e-31
8.7615e-07 1.4699e-30
8.7762e-07 2.4546e-30
8.7908e-07 3.563e-30
8.8055e-07 4.723e-30
8.8202e-07 6.9402e-30
8.8349e-07 6.5743e-30
8.8496e-07 7.6098e-30
8.8644e-07 1.375e-29
8.8792e-07 1.3921e-29
8.894e-07 1.1419e-29
8.9089e-07 1.7913e-29
8.9237e-07 4.5614e-29
8.9386e-07 1.0346e-28
8.9536e-07 2.05e-28
8.9685e-07 3.0483e-28
8.9835e-07 3.4649e-28
8.9985e-07 3.7652e-28
9.0135e-07 3.4825e-28
9.0285e-07 2.6377e-28
9.0436e-07 1.3454e-28
9.0587e-07 1.6895e-28
9.0738e-07 3.4212e-28
9.089e-07 3.5775e-28
9.1041e-07 3.4678e-28
9.1193e-07 3.0412e-28
9.1346e-07 4.3897e-28
9.1498e-07 3.7849e-28
9.1651e-07 3.8217e-28
9.1804e-07 3.8739e-28
9.1957e-07 2.1565e-28
9.211e-07 1.8904e-28
9.2264e-07 1.8294e-28
9.2418e-07 2.641e-28
9.2572e-07 2.3256e-28
9.2727e-07 3.0254e-28
9.2882e-07 6.1889e-28
9.3037e-07 8.4275e-28
9.3192e-07 1.2603e-27
9.3348e-07 1.7002e-27
9.3503e-07 1.5324e-27
9.366e-07 1.5061e-27
9.3816e-07 1.4196e-27
9.3972e-07 7.1078e-28
9.4129e-07 9.1053e-28
9.4286e-07 1.0244e-27
9.4444e-07 1.1655e-27
9.4601e-07 1.1439e-27
9.4759e-07 1.0597e-27
9.4918e-07 9.8087e-28
9.5076e-07 9.2595e-28
9.5235e-07 1.1328e-27
9.5394e-07 8.6195e-28
9.5553e-07 9.7341e-28
9.5712e-07 8.2273e-28
9.5872e-07 8.351e-28
9.6032e-07 8.2265e-28
9.6192e-07 7.0669e-28
9.6353e-07 5.9737e-28
9.6514e-07 5.8139e-28
9.6675e-07 5.1727e-28
9.6836e-07 2.5821e-28
9.6998e-07 2.1796e-28
9.716e-07 2.0036e-28
9.7322e-07 3.0367e-28
9.7484e-07 3.4028e-28
9.7647e-07 3.3879e-28
9.781e-07 2.4283e-28
9.7973e-07 2.6935e-28
9.8137e-07 1.5753e-28
9.8301e-07 1.5589e-28
9.8465e-07 1.1729e-28
9.8629e-07 6.1626e-29
9.8794e-07 5.6927e-29
9.8959e-07 4.3375e-29
9.9124e-07 3.1239e-29
9.9289e-07 3.6236e-29
9.9455e-07 1.4219e-29
9.9621e-07 1.2027e-29
9.9787e-07 1.2522e-29
9.9954e-07 1.4959e-29
1.0012e-06 2.1736e-29
1.0029e-06 2.446e-29
1.0046e-06 1.5589e-29
1.0062e-06 1.114e-29
1.0079e-06 1.6489e-29
1.0096e-06 2.8746e-29
1.0113e-06 1.2243e-29
1.013e-06 9.2066e-30
1.0147e-06 9.4321e-30
1.0163e-06 7.8937e-30
1.018e-06 7.9544e-30
1.0197e-06 1.198e-29
1.0214e-06 7.8717e-30
1.0232e-06 1.5421e-29
1.0249e-06 1.0097e-29
1.0266e-06 7.6136e-30
1.0283e-06 8.6964e-30
1.03e-06 3.6832e-30