File: material/gas/smooth_input/no2_uv_vis_toa_T0_P0.txt
2.8e-07 5.6433e-24
2.8047e-07 5.8019e-24
2.8094e-07 6.038e-24
2.814e-07 6.2e-24
2.8187e-07 5.9151e-24
2.8234e-07 5.715e-24
2.8282e-07 5.9098e-24
2.8329e-07 6.403e-24
2.8376e-07 7.0433e-24
2.8423e-07 7.1417e-24
2.8471e-07 7.3942e-24
2.8518e-07 7.6785e-24
2.8566e-07 7.9183e-24
2.8614e-07 8.045e-24
2.8661e-07 7.9094e-24
2.8709e-07 7.7962e-24
2.8757e-07 7.8971e-24
2.8805e-07 7.9201e-24
2.8853e-07 8.1947e-24
2.8901e-07 8.5049e-24
2.895e-07 8.9283e-24
2.8998e-07 9.2886e-24
2.9046e-07 9.3532e-24
2.9095e-07 9.8945e-24
2.9143e-07 1.0467e-23
2.9192e-07 1.0696e-23
2.9241e-07 1.1007e-23
2.929e-07 1.0581e-23
2.9339e-07 1.0182e-23
2.9388e-07 1.0173e-23
2.9437e-07 1.0822e-23
2.9486e-07 1.1362e-23
2.9535e-07 1.0791e-23
2.9584e-07 1.0827e-23
2.9634e-07 1.1894e-23
2.9683e-07 1.3257e-23
2.9733e-07 1.4607e-23
2.9782e-07 1.4173e-23
2.9832e-07 1.334e-23
2.9882e-07 1.3304e-23
2.9932e-07 1.3762e-23
2.9982e-07 1.3849e-23
3.0032e-07 1.3369e-23
3.0082e-07 1.3412e-23
3.0132e-07 1.3714e-23
3.0182e-07 1.4758e-23
3.0233e-07 1.5649e-23
3.0283e-07 1.6294e-23
3.0334e-07 1.6883e-23
3.0384e-07 1.6761e-23
3.0435e-07 1.6861e-23
3.0486e-07 1.7317e-23
3.0537e-07 1.7166e-23
3.0588e-07 1.6713e-23
3.0639e-07 1.714e-23
3.069e-07 1.8166e-23
3.0741e-07 1.8476e-23
3.0792e-07 1.787e-23
3.0844e-07 1.7957e-23
3.0895e-07 1.9743e-23
3.0947e-07 2.0608e-23
3.0998e-07 1.9995e-23
3.105e-07 2.0139e-23
3.1102e-07 2.0873e-23
3.1154e-07 2.1396e-23
3.1206e-07 2.1776e-23
3.1258e-07 2.2723e-23
3.131e-07 2.2289e-23
3.1362e-07 2.1555e-23
3.1415e-07 2.1822e-23
3.1467e-07 2.3412e-23
3.152e-07 2.4187e-23
3.1572e-07 2.3377e-23
3.1625e-07 2.2895e-23
3.1678e-07 2.3847e-23
3.1731e-07 2.5646e-23
3.1784e-07 2.6896e-23
3.1837e-07 2.6476e-23
3.189e-07 2.5681e-23
3.1943e-07 2.5898e-23
3.1996e-07 2.759e-23
3.205e-07 2.8157e-23
3.2103e-07 2.7193e-23
3.2157e-07 2.7079e-23
3.2211e-07 2.813e-23
3.2264e-07 2.9287e-23
3.2318e-07 2.9545e-23
3.2372e-07 2.9196e-23
3.2426e-07 2.883e-23
3.248e-07 3.0034e-23
3.2535e-07 3.2194e-23
3.2589e-07 3.1998e-23
3.2643e-07 3.2393e-23
3.2698e-07 3.1847e-23
3.2752e-07 3.2427e-23
3.2807e-07 3.3038e-23
3.2862e-07 3.2322e-23
3.2917e-07 3.3313e-23
3.2972e-07 3.4766e-23
3.3027e-07 3.4197e-23
3.3082e-07 3.3718e-23
3.3137e-07 3.4367e-23
3.3192e-07 3.4574e-23
3.3248e-07 3.708e-23
3.3303e-07 4.0405e-23
3.3359e-07 3.842e-23
3.3414e-07 3.5247e-23
3.347e-07 3.6575e-23
3.3526e-07 3.8725e-23
3.3582e-07 3.7436e-23
3.3638e-07 3.8968e-23
3.3694e-07 3.9218e-23
3.375e-07 3.7259e-23
3.3807e-07 3.8253e-23
3.3863e-07 4.3423e-23
3.392e-07 4.4083e-23
3.3976e-07 4.2219e-23
3.4033e-07 4.2658e-23
3.409e-07 4.4687e-23
3.4147e-07 4.5901e-23
3.4204e-07 4.3047e-23
3.4261e-07 3.9744e-23
3.4318e-07 3.9684e-23
3.4375e-07 4.2564e-23
3.4433e-07 4.3151e-23
3.449e-07 4.3982e-23
3.4548e-07 4.4158e-23
3.4605e-07 4.614e-23
3.4663e-07 4.8077e-23
3.4721e-07 4.7092e-23
3.4779e-07 4.7659e-23
3.4837e-07 5.4229e-23
3.4895e-07 5.0673e-23
3.4953e-07 4.4058e-23
3.5012e-07 4.4062e-23
3.507e-07 4.717e-23
3.5129e-07 4.8761e-23
3.5187e-07 4.6637e-23
3.5246e-07 4.6773e-23
3.5305e-07 4.3446e-23
3.5364e-07 4.6967e-23
3.5423e-07 5.4554e-23
3.5482e-07 5.5442e-23
3.5541e-07 5.0113e-23
3.5601e-07 4.7705e-23
3.566e-07 5.1753e-23
3.572e-07 5.7456e-23
3.5779e-07 5.5494e-23
3.5839e-07 5.1763e-23
3.5899e-07 4.8406e-23
3.5959e-07 4.8025e-23
3.6019e-07 4.9255e-23
3.6079e-07 5.3827e-23
3.6139e-07 5.405e-23
3.6199e-07 5.2384e-23
3.626e-07 5.3352e-23
3.632e-07 5.3021e-23
3.6381e-07 5.1362e-23
3.6442e-07 5.465e-23
3.6502e-07 6.0195e-23
3.6563e-07 6.133e-23
3.6624e-07 5.5379e-23
3.6686e-07 5.3655e-23
3.6747e-07 5.746e-23
3.6808e-07 5.6906e-23
3.687e-07 5.5046e-23
3.6931e-07 5.5761e-23
3.6993e-07 5.6076e-23
3.7054e-07 5.5242e-23
3.7116e-07 5.5221e-23
3.7178e-07 6.0833e-23
3.724e-07 6.2992e-23
3.7302e-07 5.9187e-23
3.7365e-07 5.668e-23
3.7427e-07 5.5889e-23
3.749e-07 5.5565e-23
3.7552e-07 6.1587e-23
3.7615e-07 6.6117e-23
3.7678e-07 6.4343e-23
3.7741e-07 5.6642e-23
3.7804e-07 5.4787e-23
3.7867e-07 5.5292e-23
3.793e-07 6.0135e-23
3.7993e-07 6.539e-23
3.8057e-07 6.3807e-23
3.812e-07 6.151e-23
3.8184e-07 6.0616e-23
3.8247e-07 5.8068e-23
3.8311e-07 5.7765e-23
3.8375e-07 6.0607e-23
3.8439e-07 6.3121e-23
3.8503e-07 6.3519e-23
3.8568e-07 6.2391e-23
3.8632e-07 5.8541e-23
3.8697e-07 6.0032e-23
3.8761e-07 6.2754e-23
3.8826e-07 6.1756e-23
3.8891e-07 6.2911e-23
3.8956e-07 6.3648e-23
3.9021e-07 6.3335e-23
3.9086e-07 6.2289e-23
3.9151e-07 6.5006e-23
3.9216e-07 6.587e-23
3.9282e-07 6.2292e-23
3.9347e-07 5.78e-23
3.9413e-07 5.7581e-23
3.9479e-07 5.8642e-23
3.9545e-07 6.4914e-23
3.9611e-07 6.4502e-23
3.9677e-07 5.8889e-23
3.9743e-07 6.0194e-23
3.9809e-07 6.8168e-23
3.9876e-07 6.5674e-23
3.9942e-07 6.1475e-23
4.0009e-07 6.9117e-23
4.0076e-07 6.8678e-23
4.0143e-07 6.5763e-23
4.021e-07 6.0323e-23
4.0277e-07 5.6353e-23
4.0344e-07 5.7456e-23
4.0411e-07 6.2255e-23
4.0479e-07 6.3949e-23
4.0546e-07 6.4576e-23
4.0614e-07 5.791e-23
4.0682e-07 5.257e-23
4.075e-07 5.4744e-23
4.0818e-07 6.754e-23
4.0886e-07 6.7665e-23
4.0954e-07 6.407e-23
4.1023e-07 6.6477e-23
4.1091e-07 6.4701e-23
4.116e-07 5.6185e-23
4.1228e-07 5.6742e-23
4.1297e-07 6.8028e-23
4.1366e-07 7.2287e-23
4.1435e-07 5.9527e-23
4.1504e-07 5.96e-23
4.1574e-07 5.2534e-23
4.1643e-07 5.179e-23
4.1712e-07 5.4804e-23
4.1782e-07 5.7431e-23
4.1852e-07 5.9175e-23
4.1922e-07 5.9362e-23
4.1992e-07 6.2221e-23
4.2062e-07 6.2417e-23
4.2132e-07 6.0909e-23
4.2202e-07 6.3492e-23
4.2273e-07 6.1429e-23
4.2343e-07 6.267e-23
4.2414e-07 6.5658e-23
4.2485e-07 6.2892e-23
4.2556e-07 5.3428e-23
4.2627e-07 4.7376e-23
4.2698e-07 5.3216e-23
4.2769e-07 6.1921e-23
4.2841e-07 5.9448e-23
4.2912e-07 5.0299e-23
4.2984e-07 4.7214e-23
4.3055e-07 5.9566e-23
4.3127e-07 6.046e-23
4.3199e-07 5.1926e-23
4.3271e-07 4.8203e-23
4.3344e-07 5.6402e-23
4.3416e-07 5.8338e-23
4.3488e-07 6.7504e-23
4.3561e-07 6.4344e-23
4.3634e-07 5.6668e-23
4.3707e-07 4.7653e-23
4.3779e-07 4.2077e-23
4.3853e-07 5.3327e-23
4.3926e-07 6.8709e-23
4.3999e-07 5.9487e-23
4.4073e-07 4.6322e-23
4.4146e-07 4.0828e-23
4.422e-07 4.0539e-23
4.4294e-07 4.473e-23
4.4368e-07 4.7763e-23
4.4442e-07 5.8917e-23
4.4516e-07 6.1594e-23
4.459e-07 5.0719e-23
4.4664e-07 4.3947e-23
4.4739e-07 5.4302e-23
4.4814e-07 6.9061e-23
4.4889e-07 5.3886e-23
4.4963e-07 4.4307e-23
4.5038e-07 4.6098e-23
4.5114e-07 4.5508e-23
4.5189e-07 4.6697e-23
4.5264e-07 4.7628e-23
4.534e-07 4.5072e-23
4.5416e-07 4.1076e-23
4.5491e-07 4.5715e-23
4.5567e-07 4.3651e-23
4.5643e-07 3.9261e-23
4.572e-07 4.3068e-23
4.5796e-07 5.128e-23
4.5872e-07 4.5852e-23
4.5949e-07 4.3379e-23
4.6026e-07 4.8832e-23
4.6102e-07 4.6256e-23
4.6179e-07 4.0132e-23
4.6256e-07 4.6471e-23
4.6334e-07 5.5627e-23
4.6411e-07 4.6779e-23
4.6489e-07 4.011e-23
4.6566e-07 3.1622e-23
4.6644e-07 3.7592e-23
4.6722e-07 4.3804e-23
4.68e-07 4.1063e-23
4.6878e-07 3.5753e-23
4.6956e-07 3.2989e-23
4.7034e-07 3.4659e-23
4.7113e-07 3.2885e-23
4.7192e-07 3.4981e-23
4.727e-07 3.4801e-23
4.7349e-07 4.3884e-23
4.7428e-07 4.9323e-23
4.7507e-07 4.5904e-23
4.7587e-07 3.8479e-23
4.7666e-07 3.4499e-23
4.7746e-07 3.3453e-23
4.7825e-07 3.2895e-23
4.7905e-07 3.7004e-23
4.7985e-07 4.0866e-23
4.8065e-07 3.6244e-23
4.8146e-07 3.5941e-23
4.8226e-07 3.0063e-23
4.8306e-07 2.5457e-23
4.8387e-07 2.5358e-23
4.8468e-07 2.7991e-23
4.8549e-07 2.8632e-23
4.863e-07 2.796e-23
4.8711e-07 2.6552e-23
4.8792e-07 3.3143e-23
4.8874e-07 4.4093e-23
4.8955e-07 3.8131e-23
4.9037e-07 3.0833e-23
4.9119e-07 2.4599e-23
4.9201e-07 2.6006e-23
4.9283e-07 2.6856e-23
4.9365e-07 3.0941e-23
4.9448e-07 3.4597e-23
4.953e-07 3.2849e-23
4.9613e-07 3.3279e-23
4.9696e-07 2.8905e-23
4.9779e-07 2.2474e-23
4.9862e-07 1.9046e-23
4.9945e-07 1.6611e-23
5.0028e-07 1.6795e-23
5.0112e-07 1.9173e-23
5.0195e-07 2.259e-23
5.0279e-07 2.7396e-23
5.0363e-07 2.4011e-23
5.0447e-07 3.1113e-23
5.0531e-07 2.8923e-23
5.0616e-07 2.3717e-23
5.07e-07 2.1432e-23
5.0785e-07 2.0586e-23
5.087e-07 2.4184e-23
5.0954e-07 2.7362e-23
5.104e-07 2.6123e-23
5.1125e-07 2.4729e-23
5.121e-07 2.4482e-23
5.1296e-07 2.2067e-23
5.1381e-07 1.8495e-23
5.1467e-07 1.6925e-23
5.1553e-07 1.5699e-23
5.1639e-07 1.4786e-23
5.1725e-07 1.3744e-23
5.1811e-07 1.7472e-23
5.1898e-07 1.9378e-23
5.1984e-07 1.9234e-23
5.2071e-07 1.6854e-23
5.2158e-07 1.4992e-23
5.2245e-07 1.5095e-23
5.2332e-07 1.5224e-23
5.242e-07 1.7013e-23
5.2507e-07 2.2821e-23
5.2595e-07 2.2589e-23
5.2683e-07 1.991e-23
5.2771e-07 1.8243e-23
5.2859e-07 1.661e-23
5.2947e-07 1.504e-23
5.3035e-07 1.5995e-23
5.3124e-07 1.585e-23
5.3213e-07 1.6536e-23
5.3301e-07 1.5608e-23
5.339e-07 1.3259e-23
5.3479e-07 1.0932e-23
5.3569e-07 8.8926e-24
5.3658e-07 9.0605e-24
5.3748e-07 9.2104e-24
5.3837e-07 1.2453e-23
5.3927e-07 1.2535e-23
5.4017e-07 9.4009e-24
5.4107e-07 9.8581e-24
5.4198e-07 1.3857e-23
5.4288e-07 1.529e-23
5.4379e-07 1.3954e-23
5.447e-07 1.4105e-23
5.4561e-07 1.3909e-23
5.4652e-07 1.1289e-23
5.4743e-07 1.3326e-23
5.4834e-07 1.3516e-23
5.4926e-07 1.3437e-23
5.5017e-07 1.111e-23
5.5109e-07 9.6319e-24
5.5201e-07 9.8281e-24
5.5293e-07 1.1436e-23
5.5386e-07 1.0335e-23
5.5478e-07 8.3919e-24
5.5571e-07 6.7311e-24
5.5663e-07 6.6859e-24
5.5756e-07 6.7056e-24
5.5849e-07 6.4226e-24
5.5943e-07 5.4071e-24
5.6036e-07 6.1209e-24
5.613e-07 7.0351e-24
5.6223e-07 7.8012e-24
5.6317e-07 1.02e-23
5.6411e-07 1.2119e-23
5.6505e-07 1.0975e-23
5.66e-07 7.2672e-24
5.6694e-07 6.2702e-24
5.6789e-07 8.2126e-24
5.6883e-07 7.8975e-24
5.6978e-07 8.2248e-24
5.7074e-07 1.0448e-23
5.7169e-07 1.0131e-23
5.7264e-07 8.4099e-24
5.736e-07 6.4761e-24
5.7456e-07 5.1473e-24
5.7551e-07 4.3069e-24
5.7647e-07 3.4291e-24
5.7744e-07 3.6908e-24
5.784e-07 5.0049e-24
5.7937e-07 5.9406e-24
5.8033e-07 5.3856e-24
5.813e-07 4.0261e-24
5.8227e-07 3.5859e-24
5.8324e-07 3.8301e-24
5.8422e-07 4.669e-24
5.8519e-07 6.0884e-24
5.8617e-07 5.722e-24
5.8715e-07 5.0282e-24
5.8813e-07 4.2698e-24
5.8911e-07 4.8491e-24
5.9009e-07 6.1439e-24
5.9108e-07 6.4628e-24
5.9206e-07 7.8093e-24
5.9305e-07 7.3284e-24
5.9404e-07 4.781e-24
5.9503e-07 3.3843e-24
5.9603e-07 3.0577e-24
5.9702e-07 3.3069e-24
5.9802e-07 3.5069e-24
5.9902e-07 4.0972e-24
6.0002e-07 4.7864e-24
6.0102e-07 4.6988e-24
6.0202e-07 3.9826e-24
6.0303e-07 2.6173e-24
6.0403e-07 1.7446e-24
6.0504e-07 1.8354e-24
6.0605e-07 1.8463e-24
6.0706e-07 1.8925e-24
6.0808e-07 2.0691e-24
6.0909e-07 1.9872e-24
6.1011e-07 2.053e-24
6.1113e-07 3.1496e-24
6.1215e-07 4.9209e-24
6.1317e-07 4.2662e-24
6.1419e-07 3.3868e-24
6.1522e-07 3.0445e-24
6.1624e-07 3.889e-24
6.1727e-07 3.8418e-24
6.183e-07 2.7291e-24
6.1933e-07 2.5237e-24
6.2037e-07 3.2603e-24
6.214e-07 2.6557e-24
6.2244e-07 2.1902e-24
6.2348e-07 2.3723e-24
6.2452e-07 2.2625e-24
6.2556e-07 2.0829e-24
6.2661e-07 1.775e-24
6.2765e-07 1.4785e-24
6.287e-07 1.3633e-24
6.2975e-07 1.1595e-24
6.308e-07 1.2e-24
6.3185e-07 1.4048e-24
6.3291e-07 1.302e-24
6.3397e-07 1.4855e-24
6.3502e-07 1.3721e-24
6.3608e-07 1.4999e-24
6.3715e-07 1.5481e-24
6.3821e-07 1.4971e-24
6.3927e-07 1.4426e-24
6.4034e-07 1.59e-24
6.4141e-07 1.7536e-24
6.4248e-07 2.1923e-24
6.4355e-07 1.9496e-24
6.4463e-07 1.5666e-24
6.457e-07 1.9198e-24
6.4678e-07 2.6632e-24
6.4786e-07 2.249e-24
6.4894e-07 1.2896e-24
6.5003e-07 1.3117e-24
6.5111e-07 1.4212e-24
6.522e-07 1.1965e-24
6.5329e-07 9.9617e-25
6.5438e-07 9.6002e-25
6.5547e-07 1.0071e-24
6.5656e-07 8.5996e-25
6.5766e-07 7.0892e-25
6.5876e-07 7.1554e-25
6.5986e-07 6.9278e-25
6.6096e-07 5.2963e-25
6.6206e-07 4.1923e-25
6.6317e-07 3.9491e-25
6.6427e-07 4.5334e-25
6.6538e-07 6.2773e-25
6.6649e-07 4.5764e-25
6.676e-07 -0
6.6872e-07 -0
6.6983e-07 -0
6.7095e-07 -0
6.7207e-07 -0
6.7319e-07 -0
6.7432e-07 -0
6.7544e-07 -0
6.7657e-07 -0
6.777e-07 -0
6.7883e-07 -0
6.7996e-07 -0
6.811e-07 -0
6.8224e-07 -0
6.8338e-07 -0
6.8452e-07 -0
6.8566e-07 -0
6.868e-07 -0
6.8795e-07 -0
6.891e-07 -0
6.9025e-07 -0
6.914e-07 -0
6.9255e-07 -0
6.9371e-07 -0
6.9487e-07 -0
6.9603e-07 -0
6.9719e-07 -0
6.9835e-07 -0
6.9952e-07 -0
7.0069e-07 -0
7.0186e-07 -0
7.0303e-07 -0
7.042e-07 -0
7.0538e-07 -0
7.0655e-07 -0
7.0773e-07 -0
7.0891e-07 -0
7.101e-07 -0
7.1128e-07 -0
7.1247e-07 -0
7.1366e-07 -0
7.1485e-07 -0
7.1604e-07 -0
7.1724e-07 -0
7.1844e-07 -0
7.1964e-07 -0
7.2084e-07 -0
7.2204e-07 -0
7.2324e-07 -0
7.2445e-07 -0
7.2566e-07 -0
7.2687e-07 -0
7.2809e-07 -0
7.293e-07 -0
7.3052e-07 -0
7.3174e-07 -0
7.3296e-07 -0
7.3418e-07 -0
7.3541e-07 -0
7.3664e-07 -0
7.3787e-07 -0
7.391e-07 -0
7.4033e-07 -0
7.4157e-07 -0
7.428e-07 -0
7.4404e-07 -0
7.4529e-07 -0
7.4653e-07 -0
7.4778e-07 -0
7.4902e-07 -0
7.5027e-07 -0
7.5153e-07 -0
7.5278e-07 -0
7.5404e-07 -0
7.553e-07 -0
7.5656e-07 -0
7.5782e-07 -0
7.5908e-07 -0
7.6035e-07 -0
7.6162e-07 -0
7.6289e-07 -0
7.6417e-07 -0
7.6544e-07 -0
7.6672e-07 -0
7.68e-07 -0
7.6928e-07 -0
7.7056e-07 -0
7.7185e-07 -0
7.7314e-07 -0
7.7443e-07 -0
7.7572e-07 -0
7.7702e-07 -0
7.7831e-07 -0
7.7961e-07 -0
7.8091e-07 -0
7.8222e-07 -0
7.8352e-07 -0
7.8483e-07 -0
7.8614e-07 -0
7.8745e-07 -0
7.8877e-07 -0
7.9008e-07 -0
7.914e-07 -0
7.9272e-07 -0
7.9405e-07 -0
7.9537e-07 -0
7.967e-07 -0
7.9803e-07 -0
7.9936e-07 -0
8.007e-07 -0
8.0203e-07 -0
8.0337e-07 -0
8.0471e-07 -0
8.0606e-07 -0
8.074e-07 -0
8.0875e-07 -0
8.101e-07 -0
8.1145e-07 -0
8.1281e-07 -0
8.1416e-07 -0
8.1552e-07 -0
8.1688e-07 -0
8.1825e-07 -0
8.1961e-07 -0
8.2098e-07 -0
8.2235e-07 -0
8.2372e-07 -0
8.251e-07 -0
8.2647e-07 -0
8.2785e-07 -0
8.2924e-07 -0
8.3062e-07 -0
8.3201e-07 -0
8.334e-07 -0
8.3479e-07 -0
8.3618e-07 -0
8.3758e-07 -0
8.3897e-07 -0
8.4037e-07 -0
8.4178e-07 -0
8.4318e-07 -0
8.4459e-07 -0
8.46e-07 -0
8.4741e-07 -0
8.4883e-07 -0
8.5024e-07 -0
8.5166e-07 -0
8.5308e-07 -0
8.5451e-07 -0
8.5593e-07 -0
8.5736e-07 -0
8.5879e-07 -0
8.6023e-07 -0
8.6166e-07 -0
8.631e-07 -0
8.6454e-07 -0
8.6598e-07 -0
8.6743e-07 -0
8.6888e-07 -0
8.7033e-07 -0
8.7178e-07 -0
8.7324e-07 -0
8.7469e-07 -0
8.7615e-07 -0
8.7762e-07 -0
8.7908e-07 -0
8.8055e-07 -0
8.8202e-07 -0
8.8349e-07 -0
8.8496e-07 -0
8.8644e-07 -0
8.8792e-07 -0
8.894e-07 -0
8.9089e-07 -0
8.9237e-07 -0
8.9386e-07 -0
8.9536e-07 -0
8.9685e-07 -0
8.9835e-07 -0
8.9985e-07 -0
9.0135e-07 -0
9.0285e-07 -0
9.0436e-07 -0
9.0587e-07 -0
9.0738e-07 -0
9.089e-07 -0
9.1041e-07 -0
9.1193e-07 -0
9.1346e-07 -0
9.1498e-07 -0
9.1651e-07 -0
9.1804e-07 -0
9.1957e-07 -0
9.211e-07 -0
9.2264e-07 -0
9.2418e-07 -0
9.2572e-07 -0
9.2727e-07 -0
9.2882e-07 -0
9.3037e-07 -0
9.3192e-07 -0
9.3348e-07 -0
9.3503e-07 -0
9.366e-07 -0
9.3816e-07 -0
9.3972e-07 -0
9.4129e-07 -0
9.4286e-07 -0
9.4444e-07 -0
9.4601e-07 -0
9.4759e-07 -0
9.4918e-07 -0
9.5076e-07 -0
9.5235e-07 -0
9.5394e-07 -0
9.5553e-07 -0
9.5712e-07 -0
9.5872e-07 -0
9.6032e-07 -0
9.6192e-07 -0
9.6353e-07 -0
9.6514e-07 -0
9.6675e-07 -0
9.6836e-07 -0
9.6998e-07 -0
9.716e-07 -0
9.7322e-07 -0
9.7484e-07 -0
9.7647e-07 -0
9.781e-07 -0
9.7973e-07 -0
9.8137e-07 -0
9.8301e-07 -0
9.8465e-07 -0
9.8629e-07 -0
9.8794e-07 -0
9.8959e-07 -0
9.9124e-07 -0
9.9289e-07 -0
9.9455e-07 -0
9.9621e-07 -0
9.9787e-07 -0
9.9954e-07 -0
1.0012e-06 -0
1.0029e-06 -0
1.0046e-06 -0
1.0062e-06 -0
1.0079e-06 -0
1.0096e-06 -0
1.0113e-06 -0
1.013e-06 -0
1.0147e-06 -0
1.0163e-06 -0
1.018e-06 -0
1.0197e-06 -0
1.0214e-06 -0
1.0232e-06 -0
1.0249e-06 -0
1.0266e-06 -0
1.0283e-06 -0
1.03e-06 -0