File: material/gas/smooth_input/no2_uv_vis_T0_P0.txt
2.8e-07 5.6967e-24
2.8037e-07 5.7099e-24
2.8075e-07 5.8612e-24
2.8112e-07 6.0819e-24
2.815e-07 6.1852e-24
2.8187e-07 5.9872e-24
2.8225e-07 5.75e-24
2.8263e-07 5.7623e-24
2.8301e-07 6.0043e-24
2.8338e-07 6.451e-24
2.8376e-07 6.9184e-24
2.8414e-07 7.1e-24
2.8452e-07 7.227e-24
2.849e-07 7.4607e-24
2.8528e-07 7.6608e-24
2.8566e-07 7.8638e-24
2.8604e-07 8.025e-24
2.8642e-07 8.0134e-24
2.8681e-07 7.8778e-24
2.8719e-07 7.7985e-24
2.8757e-07 7.8856e-24
2.8796e-07 7.8883e-24
2.8834e-07 8.0086e-24
2.8873e-07 8.2665e-24
2.8911e-07 8.5087e-24
2.895e-07 8.8179e-24
2.8989e-07 9.1915e-24
2.9027e-07 9.327e-24
2.9066e-07 9.4231e-24
2.9105e-07 9.9093e-24
2.9144e-07 1.0399e-23
2.9183e-07 1.0604e-23
2.9222e-07 1.0875e-23
2.9261e-07 1.0979e-23
2.93e-07 1.0555e-23
2.9339e-07 1.0222e-23
2.9378e-07 1.0135e-23
2.9417e-07 1.0407e-23
2.9456e-07 1.1089e-23
2.9496e-07 1.1352e-23
2.9535e-07 1.0883e-23
2.9575e-07 1.0678e-23
2.9614e-07 1.1327e-23
2.9654e-07 1.233e-23
2.9693e-07 1.3451e-23
2.9733e-07 1.4513e-23
2.9773e-07 1.4457e-23
2.9812e-07 1.3609e-23
2.9852e-07 1.3229e-23
2.9892e-07 1.3342e-23
2.9932e-07 1.3727e-23
2.9972e-07 1.3906e-23
3.0012e-07 1.3548e-23
3.0052e-07 1.3341e-23
3.0092e-07 1.3428e-23
3.0132e-07 1.3673e-23
3.0173e-07 1.4506e-23
3.0213e-07 1.5373e-23
3.0253e-07 1.5801e-23
3.0294e-07 1.6403e-23
3.0334e-07 1.6882e-23
3.0375e-07 1.6802e-23
3.0415e-07 1.6738e-23
3.0456e-07 1.7021e-23
3.0496e-07 1.7359e-23
3.0537e-07 1.7172e-23
3.0578e-07 1.6755e-23
3.0619e-07 1.682e-23
3.066e-07 1.7507e-23
3.0701e-07 1.8304e-23
3.0742e-07 1.8488e-23
3.0783e-07 1.7993e-23
3.0824e-07 1.7709e-23
3.0865e-07 1.8556e-23
3.0906e-07 2.0122e-23
3.0947e-07 2.0619e-23
3.0989e-07 2.0136e-23
3.103e-07 1.988e-23
3.1071e-07 2.0438e-23
3.1113e-07 2.0993e-23
3.1155e-07 2.1414e-23
3.1196e-07 2.1582e-23
3.1238e-07 2.2474e-23
3.1279e-07 2.2686e-23
3.1321e-07 2.2115e-23
3.1363e-07 2.1542e-23
3.1405e-07 2.1669e-23
3.1447e-07 2.2651e-23
3.1489e-07 2.4004e-23
3.1531e-07 2.4049e-23
3.1573e-07 2.3362e-23
3.1615e-07 2.2885e-23
3.1657e-07 2.3292e-23
3.17e-07 2.4485e-23
3.1742e-07 2.606e-23
3.1784e-07 2.6915e-23
3.1827e-07 2.6655e-23
3.1869e-07 2.5931e-23
3.1912e-07 2.5603e-23
3.1955e-07 2.6141e-23
3.1997e-07 2.7583e-23
3.204e-07 2.827e-23
3.2083e-07 2.7508e-23
3.2126e-07 2.7005e-23
3.2168e-07 2.7211e-23
3.2211e-07 2.8169e-23
3.2254e-07 2.914e-23
3.2297e-07 2.957e-23
3.2341e-07 2.9442e-23
3.2384e-07 2.9102e-23
3.2427e-07 2.8822e-23
3.247e-07 2.9627e-23
3.2514e-07 3.1572e-23
3.2557e-07 3.2279e-23
3.2601e-07 3.1983e-23
3.2644e-07 3.2417e-23
3.2688e-07 3.198e-23
3.2731e-07 3.1922e-23
3.2775e-07 3.2975e-23
3.2819e-07 3.2888e-23
3.2863e-07 3.2306e-23
3.2907e-07 3.2968e-23
3.295e-07 3.4335e-23
3.2994e-07 3.4808e-23
3.3039e-07 3.3887e-23
3.3083e-07 3.3725e-23
3.3127e-07 3.4285e-23
3.3171e-07 3.4467e-23
3.3215e-07 3.5108e-23
3.326e-07 3.8035e-23
3.3304e-07 4.0467e-23
3.3349e-07 3.9003e-23
3.3393e-07 3.6292e-23
3.3438e-07 3.495e-23
3.3482e-07 3.752e-23
3.3527e-07 3.8732e-23
3.3572e-07 3.7395e-23
3.3617e-07 3.8332e-23
3.3662e-07 3.9389e-23
3.3706e-07 3.8926e-23
3.3752e-07 3.7256e-23
3.3797e-07 3.7471e-23
3.3842e-07 4.1682e-23
3.3887e-07 4.4324e-23
3.3932e-07 4.3701e-23
3.3977e-07 4.2185e-23
3.4023e-07 4.2477e-23
3.4068e-07 4.3699e-23
3.4114e-07 4.5733e-23
3.4159e-07 4.5587e-23
3.4205e-07 4.2994e-23
3.4251e-07 4.0175e-23
3.4296e-07 3.9132e-23
3.4342e-07 4.0997e-23
3.4388e-07 4.2962e-23
3.4434e-07 4.3119e-23
3.448e-07 4.3798e-23
3.4526e-07 4.4181e-23
3.4572e-07 4.455e-23
3.4618e-07 4.6805e-23
3.4664e-07 4.81e-23
3.4711e-07 4.7376e-23
3.4757e-07 4.6575e-23
3.4803e-07 5.0338e-23
3.485e-07 5.4695e-23
3.4896e-07 5.0473e-23
3.4943e-07 4.4745e-23
3.499e-07 4.3391e-23
3.5036e-07 4.525e-23
3.5083e-07 4.7837e-23
3.513e-07 4.8803e-23
3.5177e-07 4.6741e-23
3.5224e-07 4.7186e-23
3.5271e-07 4.5282e-23
3.5318e-07 4.3436e-23
3.5365e-07 4.7044e-23
3.5412e-07 5.3358e-23
3.546e-07 5.637e-23
3.5507e-07 5.3311e-23
3.5555e-07 4.9009e-23
3.5602e-07 4.772e-23
3.565e-07 5.0777e-23
3.5697e-07 5.6063e-23
3.5745e-07 5.7412e-23
3.5793e-07 5.4515e-23
3.584e-07 5.1669e-23
3.5888e-07 4.891e-23
3.5936e-07 4.7981e-23
3.5984e-07 4.8148e-23
3.6032e-07 5.0237e-23
3.608e-07 5.4012e-23
3.6128e-07 5.4497e-23
3.6177e-07 5.2548e-23
3.6225e-07 5.2743e-23
3.6273e-07 5.3427e-23
3.6322e-07 5.2998e-23
3.637e-07 5.1431e-23
3.6419e-07 5.2848e-23
3.6468e-07 5.702e-23
3.6516e-07 6.1127e-23
3.6565e-07 6.13e-23
3.6614e-07 5.6501e-23
3.6663e-07 5.3059e-23
3.6712e-07 5.5447e-23
3.6761e-07 5.7721e-23
3.681e-07 5.6854e-23
3.6859e-07 5.5254e-23
3.6908e-07 5.5304e-23
3.6957e-07 5.5919e-23
3.7007e-07 5.6222e-23
3.7056e-07 5.5158e-23
3.7106e-07 5.456e-23
3.7155e-07 5.868e-23
3.7205e-07 6.2782e-23
3.7255e-07 6.255e-23
3.7304e-07 5.8912e-23
3.7354e-07 5.6614e-23
3.7404e-07 5.6754e-23
3.7454e-07 5.4637e-23
3.7504e-07 5.6657e-23
3.7554e-07 6.1685e-23
3.7604e-07 6.5248e-23
3.7654e-07 6.6711e-23
3.7705e-07 6.0841e-23
3.7755e-07 5.5733e-23
3.7805e-07 5.4787e-23
3.7856e-07 5.5032e-23
3.7906e-07 5.7705e-23
3.7957e-07 6.3547e-23
3.8008e-07 6.5238e-23
3.8058e-07 6.381e-23
3.8109e-07 6.1817e-23
3.816e-07 6.0735e-23
3.8211e-07 5.9942e-23
3.8262e-07 5.7324e-23
3.8313e-07 5.7876e-23
3.8364e-07 5.997e-23
3.8416e-07 6.2058e-23
3.8467e-07 6.4084e-23
3.8518e-07 6.287e-23
3.857e-07 6.2485e-23
3.8621e-07 5.9224e-23
3.8673e-07 5.8614e-23
3.8724e-07 6.1655e-23
3.8776e-07 6.2907e-23
3.8828e-07 6.1663e-23
3.888e-07 6.2124e-23
3.8932e-07 6.4349e-23
3.8984e-07 6.299e-23
3.9036e-07 6.3389e-23
3.9088e-07 6.2233e-23
3.914e-07 6.4054e-23
3.9192e-07 6.7018e-23
3.9245e-07 6.4003e-23
3.9297e-07 6.0495e-23
3.935e-07 5.7662e-23
3.9402e-07 5.794e-23
3.9455e-07 5.7335e-23
3.9507e-07 6.1153e-23
3.956e-07 6.5764e-23
3.9613e-07 6.3907e-23
3.9666e-07 5.9186e-23
3.9719e-07 5.857e-23
3.9772e-07 6.2787e-23
3.9825e-07 6.9168e-23
3.9878e-07 6.5518e-23
3.9931e-07 6.0729e-23
3.9985e-07 6.6745e-23
4.0038e-07 6.9774e-23
4.0092e-07 6.8178e-23
4.0145e-07 6.5609e-23
4.0199e-07 6.1354e-23
4.0252e-07 5.7177e-23
4.0306e-07 5.6104e-23
4.036e-07 5.8678e-23
4.0414e-07 6.247e-23
4.0468e-07 6.287e-23
4.0522e-07 6.6671e-23
4.0576e-07 6.0644e-23
4.063e-07 5.708e-23
4.0684e-07 5.2326e-23
4.0739e-07 5.3303e-23
4.0793e-07 6.2631e-23
4.0848e-07 7.0501e-23
4.0902e-07 6.5952e-23
4.0957e-07 6.4192e-23
4.1011e-07 6.5265e-23
4.1066e-07 6.7661e-23
4.1121e-07 6.0164e-23
4.1176e-07 5.5536e-23
4.1231e-07 5.6866e-23
4.1286e-07 6.5665e-23
4.1341e-07 7.4504e-23
4.1396e-07 6.5443e-23
4.1452e-07 5.9243e-23
4.1507e-07 5.9561e-23
4.1562e-07 5.3321e-23
4.1618e-07 5.1513e-23
4.1673e-07 5.2666e-23
4.1729e-07 5.5792e-23
4.1785e-07 5.7503e-23
4.1841e-07 5.9404e-23
4.1897e-07 5.8121e-23
4.1952e-07 6.1551e-23
4.2008e-07 6.2021e-23
4.2065e-07 6.2464e-23
4.2121e-07 6.1238e-23
4.2177e-07 6.2115e-23
4.2233e-07 6.3267e-23
4.229e-07 6.0955e-23
4.2346e-07 6.2809e-23
4.2403e-07 6.52e-23
4.2459e-07 6.5705e-23
4.2516e-07 5.8212e-23
4.2573e-07 5.1568e-23
4.263e-07 4.7362e-23
4.2687e-07 5.1094e-23
4.2744e-07 6.0324e-23
4.2801e-07 6.2252e-23
4.2858e-07 5.7191e-23
4.2915e-07 4.9873e-23
4.2972e-07 4.6355e-23
4.303e-07 5.5216e-23
4.3087e-07 6.2002e-23
4.3145e-07 5.9172e-23
4.3202e-07 5.1665e-23
4.326e-07 4.7597e-23
4.3318e-07 5.3296e-23
4.3376e-07 5.8813e-23
4.3434e-07 5.8518e-23
4.3492e-07 6.8212e-23
4.355e-07 6.5972e-23
4.3608e-07 5.9005e-23
4.3666e-07 5.3171e-23
4.3724e-07 4.5386e-23
4.3783e-07 4.2078e-23
4.3841e-07 4.9611e-23
4.39e-07 6.6609e-23
4.3958e-07 6.6623e-23
4.4017e-07 5.5827e-23
4.4076e-07 4.5902e-23
4.4135e-07 4.1774e-23
4.4194e-07 3.9463e-23
4.4253e-07 4.2398e-23
4.4312e-07 4.556e-23
4.4371e-07 4.7891e-23
4.443e-07 5.6411e-23
4.4489e-07 6.4556e-23
4.4549e-07 5.6003e-23
4.4608e-07 4.8685e-23
4.4668e-07 4.3819e-23
4.4728e-07 5.0914e-23
4.4787e-07 6.7882e-23
4.4847e-07 6.3275e-23
4.4907e-07 5.0745e-23
4.4967e-07 4.4012e-23
4.5027e-07 4.5531e-23
4.5087e-07 4.6508e-23
4.5147e-07 4.5004e-23
4.5208e-07 4.7542e-23
4.5268e-07 4.7538e-23
4.5328e-07 4.5901e-23
4.5389e-07 4.1121e-23
4.545e-07 4.3719e-23
4.551e-07 4.5397e-23
4.5571e-07 4.3589e-23
4.5632e-07 4.0338e-23
4.5693e-07 3.9009e-23
4.5754e-07 4.8846e-23
4.5815e-07 5.0724e-23
4.5876e-07 4.5518e-23
4.5937e-07 4.2947e-23
4.5999e-07 4.6862e-23
4.606e-07 4.9294e-23
4.6122e-07 4.4606e-23
4.6183e-07 3.9903e-23
4.6245e-07 4.3937e-23
4.6307e-07 5.5639e-23
4.6368e-07 5.1753e-23
4.643e-07 4.5223e-23
4.6492e-07 3.9704e-23
4.6554e-07 3.2236e-23
4.6617e-07 3.3525e-23
4.6679e-07 4.262e-23
4.6741e-07 4.3234e-23
4.6804e-07 4.0952e-23
4.6866e-07 3.6249e-23
4.6929e-07 3.37e-23
4.6991e-07 3.3581e-23
4.7054e-07 3.4391e-23
4.7117e-07 3.2845e-23
4.718e-07 3.4909e-23
4.7243e-07 3.4489e-23
4.7306e-07 3.7082e-23
4.7369e-07 4.7262e-23
4.7432e-07 4.9022e-23
4.7496e-07 4.6903e-23
4.7559e-07 4.0696e-23
4.7623e-07 3.634e-23
4.7686e-07 3.392e-23
4.775e-07 3.344e-23
4.7814e-07 3.2906e-23
4.7878e-07 3.4559e-23
4.7941e-07 4.0559e-23
4.8005e-07 3.9406e-23
4.807e-07 3.6158e-23
4.8134e-07 3.6517e-23
4.8198e-07 3.2108e-23
4.8262e-07 2.7801e-23
4.8327e-07 2.4802e-23
4.8391e-07 2.5469e-23
4.8456e-07 2.777e-23
4.8521e-07 2.8421e-23
4.8585e-07 2.895e-23
4.865e-07 2.7164e-23
4.8715e-07 2.6611e-23
4.878e-07 3.1343e-23
4.8846e-07 4.1897e-23
4.8911e-07 4.2716e-23
4.8976e-07 3.6117e-23
4.9041e-07 3.0471e-23
4.9107e-07 2.4968e-23
4.9173e-07 2.5385e-23
4.9238e-07 2.5986e-23
4.9304e-07 2.7897e-23
4.937e-07 3.1104e-23
4.9436e-07 3.4398e-23
4.9502e-07 3.3472e-23
4.9568e-07 3.3007e-23
4.9634e-07 3.2956e-23
4.97e-07 2.8447e-23
4.9767e-07 2.3101e-23
4.9833e-07 1.9988e-23
4.99e-07 1.785e-23
4.9966e-07 1.6301e-23
5.0033e-07 1.6884e-23
5.01e-07 1.8956e-23
5.0167e-07 2.0741e-23
5.0234e-07 2.5637e-23
5.0301e-07 2.6832e-23
5.0368e-07 2.3912e-23
5.0435e-07 3.0039e-23
5.0503e-07 3.1668e-23
5.057e-07 2.5248e-23
5.0637e-07 2.3452e-23
5.0705e-07 2.1228e-23
5.0773e-07 2.0271e-23
5.0841e-07 2.2836e-23
5.0909e-07 2.5916e-23
5.0976e-07 2.7622e-23
5.1045e-07 2.5939e-23
5.1113e-07 2.5015e-23
5.1181e-07 2.402e-23
5.1249e-07 2.4416e-23
5.1318e-07 2.0734e-23
5.1386e-07 1.8347e-23
5.1455e-07 1.7226e-23
5.1524e-07 1.5891e-23
5.1592e-07 1.542e-23
5.1661e-07 1.4316e-23
5.173e-07 1.3787e-23
5.1799e-07 1.6645e-23
5.1869e-07 1.9536e-23
5.1938e-07 1.9292e-23
5.2007e-07 1.8896e-23
5.2077e-07 1.6688e-23
5.2146e-07 1.5084e-23
5.2216e-07 1.4812e-23
5.2285e-07 1.5528e-23
5.2355e-07 1.5099e-23
5.2425e-07 1.7253e-23
5.2495e-07 2.2401e-23
5.2565e-07 2.3002e-23
5.2635e-07 2.193e-23
5.2706e-07 1.8743e-23
5.2776e-07 1.8336e-23
5.2847e-07 1.695e-23
5.2917e-07 1.5327e-23
5.2988e-07 1.5344e-23
5.3059e-07 1.5971e-23
5.3129e-07 1.5896e-23
5.32e-07 1.6457e-23
5.3271e-07 1.6314e-23
5.3343e-07 1.4361e-23
5.3414e-07 1.2875e-23
5.3485e-07 1.0725e-23
5.3557e-07 8.8563e-24
5.3628e-07 9.2252e-24
5.37e-07 8.7718e-24
5.3771e-07 9.8807e-24
5.3843e-07 1.2657e-23
5.3915e-07 1.2792e-23
5.3987e-07 1.0457e-23
5.4059e-07 8.7362e-24
5.4131e-07 1.0902e-23
5.4204e-07 1.4083e-23
5.4276e-07 1.5209e-23
5.4349e-07 1.475e-23
5.4421e-07 1.3217e-23
5.4494e-07 1.4816e-23
5.4567e-07 1.3595e-23
5.4639e-07 1.139e-23
5.4712e-07 1.2407e-23
5.4785e-07 1.384e-23
5.4859e-07 1.3468e-23
5.4932e-07 1.3383e-23
5.5005e-07 1.1345e-23
5.5079e-07 1.0079e-23
5.5152e-07 9.4099e-24
5.5226e-07 1.0271e-23
5.53e-07 1.1517e-23
5.5373e-07 1.0491e-23
5.5447e-07 9.1531e-24
5.5521e-07 7.4634e-24
5.5596e-07 6.5328e-24
5.567e-07 6.7073e-24
5.5744e-07 6.6488e-24
5.5819e-07 6.7871e-24
5.5893e-07 5.7378e-24
5.5968e-07 5.4807e-24
5.6042e-07 6.1816e-24
5.6117e-07 6.9284e-24
5.6192e-07 7.4863e-24
5.6267e-07 8.6379e-24
5.6342e-07 1.1036e-23
5.6418e-07 1.2138e-23
5.6493e-07 1.129e-23
5.6568e-07 8.5572e-24
5.6644e-07 6.1091e-24
5.672e-07 6.7297e-24
5.6795e-07 8.323e-24
5.6871e-07 8.0033e-24
5.6947e-07 7.757e-24
5.7023e-07 9.3796e-24
5.7099e-07 1.0549e-23
5.7176e-07 1.01e-23
5.7252e-07 8.7189e-24
5.7328e-07 7.0689e-24
5.7405e-07 5.6926e-24
5.7482e-07 4.9713e-24
5.7558e-07 4.2187e-24
5.7635e-07 3.4536e-24
5.7712e-07 3.533e-24
5.7789e-07 4.1223e-24
5.7866e-07 5.5024e-24
5.7944e-07 5.9174e-24
5.8021e-07 5.5286e-24
5.8098e-07 4.3875e-24
5.8176e-07 3.7645e-24
5.8254e-07 3.565e-24
5.8331e-07 3.8597e-24
5.8409e-07 4.4785e-24
5.8487e-07 5.7768e-24
5.8565e-07 6.1033e-24
5.8644e-07 5.5446e-24
5.8722e-07 4.9593e-24
5.88e-07 4.3044e-24
5.8879e-07 4.4813e-24
5.8958e-07 5.4761e-24
5.9036e-07 6.3738e-24
5.9115e-07 6.4649e-24
5.9194e-07 7.7267e-24
5.9273e-07 7.7828e-24
5.9352e-07 6.1293e-24
5.9431e-07 4.2595e-24
5.9511e-07 3.3196e-24
5.959e-07 3.032e-24
5.967e-07 3.2138e-24
5.975e-07 3.4273e-24
5.9829e-07 3.6003e-24
5.9909e-07 4.1436e-24
5.9989e-07 4.7405e-24
6.0069e-07 4.8092e-24
6.015e-07 4.47e-24
6.023e-07 3.6357e-24
6.031e-07 2.5144e-24
6.0391e-07 1.8024e-24
6.0471e-07 1.7033e-24
6.0552e-07 1.9558e-24
6.0633e-07 1.8005e-24
6.0714e-07 1.9031e-24
6.0795e-07 2.0755e-24
6.0876e-07 2.006e-24
6.0958e-07 1.9847e-24
6.1039e-07 2.1802e-24
6.112e-07 3.3052e-24
6.1202e-07 4.7056e-24
6.1284e-07 4.9073e-24
6.1366e-07 3.6092e-24
6.1448e-07 3.2434e-24
6.153e-07 3.0628e-24
6.1612e-07 3.7673e-24
6.1694e-07 4.0767e-24
6.1776e-07 3.3703e-24
6.1859e-07 2.4677e-24
6.1942e-07 2.5777e-24
6.2024e-07 3.1953e-24
6.2107e-07 3.0238e-24
6.219e-07 2.2404e-24
6.2273e-07 2.2487e-24
6.2356e-07 2.3809e-24
6.2439e-07 2.2703e-24
6.2523e-07 2.183e-24
6.2606e-07 1.9133e-24
6.269e-07 1.7002e-24
6.2774e-07 1.461e-24
6.2857e-07 1.3657e-24
6.2941e-07 1.2603e-24
6.3025e-07 1.0919e-24
6.311e-07 1.2841e-24
6.3194e-07 1.4075e-24
6.3278e-07 1.2909e-24
6.3363e-07 1.448e-24
6.3447e-07 1.4448e-24
6.3532e-07 1.3826e-24
6.3617e-07 1.508e-24
6.3702e-07 1.5367e-24
6.3787e-07 1.5636e-24
6.3872e-07 1.4144e-24
6.3957e-07 1.4901e-24
6.4043e-07 1.5961e-24
6.4128e-07 1.7089e-24
6.4214e-07 2.0986e-24
6.43e-07 2.155e-24
6.4386e-07 1.7899e-24
6.4472e-07 1.5729e-24
6.4558e-07 1.8441e-24
6.4644e-07 2.479e-24
6.473e-07 2.6731e-24
6.4817e-07 1.9013e-24
6.4903e-07 1.2638e-24
6.499e-07 1.2845e-24
6.5077e-07 1.4184e-24
6.5164e-07 1.3381e-24
6.5251e-07 1.1361e-24
6.5338e-07 9.7978e-25
6.5425e-07 9.5111e-25
6.5512e-07 1.0033e-24
6.56e-07 9.7707e-25
6.5687e-07 7.9646e-25
6.5775e-07 7.0359e-25
6.5863e-07 7.1071e-25
6.5951e-07 7.2542e-25
6.6039e-07 6.1002e-25
6.6127e-07 4.9168e-25
6.6215e-07 4.1293e-25
6.6304e-07 3.9519e-25
6.6392e-07 4.1613e-25
6.6481e-07 5.3592e-25
6.657e-07 6.642e-25
6.6659e-07 3.9951e-25
6.6748e-07 1.8293e-26
6.6837e-07 0
6.6926e-07 0
6.7015e-07 0
6.7105e-07 0
6.7195e-07 0
6.7284e-07 0
6.7374e-07 0
6.7464e-07 0
6.7554e-07 0
6.7644e-07 0
6.7735e-07 0
6.7825e-07 0
6.7916e-07 0
6.8006e-07 0
6.8097e-07 0
6.8188e-07 0
6.8279e-07 0
6.837e-07 0
6.8462e-07 0
6.8553e-07 0
6.8645e-07 0
6.8736e-07 0
6.8828e-07 0
6.892e-07 0
6.9012e-07 0
6.9104e-07 0
6.9196e-07 0
6.9289e-07 0
6.9381e-07 0
6.9474e-07 0
6.9567e-07 0
6.966e-07 0
6.9753e-07 0
6.9846e-07 0
6.9939e-07 0
7.0032e-07 0
7.0126e-07 0
7.022e-07 0
7.0313e-07 0
7.0407e-07 0
7.0501e-07 0
7.0595e-07 0
7.069e-07 0
7.0784e-07 0
7.0879e-07 0
7.0973e-07 0
7.1068e-07 0
7.1163e-07 0
7.1258e-07 0
7.1353e-07 0
7.1448e-07 0
7.1544e-07 0
7.1639e-07 0
7.1735e-07 0
7.1831e-07 0
7.1927e-07 0
7.2023e-07 0
7.2119e-07 0
7.2215e-07 0
7.2312e-07 0
7.2408e-07 0
7.2505e-07 0
7.2602e-07 0
7.2699e-07 0
7.2796e-07 0
7.2893e-07 0
7.299e-07 0
7.3088e-07 0
7.3185e-07 0
7.3283e-07 0
7.3381e-07 0
7.3479e-07 0
7.3577e-07 0
7.3675e-07 0
7.3774e-07 0
7.3872e-07 0
7.3971e-07 0
7.407e-07 0
7.4169e-07 0
7.4268e-07 0
7.4367e-07 0
7.4466e-07 0
7.4565e-07 0
7.4665e-07 0
7.4765e-07 0
7.4865e-07 0
7.4965e-07 0
7.5065e-07 0
7.5165e-07 0
7.5265e-07 0
7.5366e-07 0
7.5466e-07 0
7.5567e-07 0
7.5668e-07 0
7.5769e-07 0
7.587e-07 0
7.5972e-07 0
7.6073e-07 0
7.6175e-07 0
7.6276e-07 0
7.6378e-07 0
7.648e-07 0
7.6582e-07 0
7.6685e-07 0
7.6787e-07 0
7.689e-07 0
7.6992e-07 0
7.7095e-07 0
7.7198e-07 0
7.7301e-07 0
7.7404e-07 0
7.7508e-07 0
7.7611e-07 0
7.7715e-07 0
7.7819e-07 0
7.7922e-07 0
7.8026e-07 0
7.8131e-07 0
7.8235e-07 0
7.8339e-07 0
7.8444e-07 0
7.8549e-07 0
7.8654e-07 0
7.8759e-07 0
7.8864e-07 0
7.8969e-07 0
7.9075e-07 0
7.918e-07 0
7.9286e-07 0
7.9392e-07 0
7.9498e-07 0
7.9604e-07 0
7.971e-07 0
7.9817e-07 0
7.9923e-07 0
8.003e-07 0
8.0137e-07 0
8.0244e-07 0
8.0351e-07 0
8.0458e-07 0
8.0566e-07 0
8.0673e-07 0
8.0781e-07 0
8.0889e-07 0
8.0997e-07 0
8.1105e-07 0
8.1213e-07 0
8.1322e-07 0
8.1431e-07 0
8.1539e-07 0
8.1648e-07 0
8.1757e-07 0
8.1866e-07 0
8.1976e-07 0
8.2085e-07 0
8.2195e-07 0
8.2304e-07 0
8.2414e-07 0
8.2524e-07 0
8.2635e-07 0
8.2745e-07 0
8.2855e-07 0
8.2966e-07 0
8.3077e-07 0
8.3188e-07 0
8.3299e-07 0
8.341e-07 0
8.3522e-07 0
8.3633e-07 0
8.3745e-07 0
8.3857e-07 0
8.3969e-07 0
8.4081e-07 0
8.4193e-07 0
8.4305e-07 0
8.4418e-07 0
8.4531e-07 0
8.4644e-07 0
8.4757e-07 0
8.487e-07 0
8.4983e-07 0
8.5097e-07 0
8.521e-07 0
8.5324e-07 0
8.5438e-07 0
8.5552e-07 0
8.5666e-07 0
8.5781e-07 0
8.5895e-07 0
8.601e-07 0
8.6125e-07 0
8.624e-07 0
8.6355e-07 0
8.647e-07 0
8.6586e-07 0
8.6701e-07 0
8.6817e-07 0
8.6933e-07 0
8.7049e-07 0
8.7165e-07 0
8.7282e-07 0
8.7398e-07 0
8.7515e-07 0
8.7632e-07 0
8.7749e-07 0
8.7866e-07 0
8.7983e-07 0
8.8101e-07 0
8.8218e-07 0
8.8336e-07 0
8.8454e-07 0
8.8572e-07 0
8.8691e-07 0
8.8809e-07 0
8.8928e-07 0
8.9046e-07 0
8.9165e-07 0
8.9284e-07 0
8.9404e-07 0
8.9523e-07 0
8.9642e-07 0
8.9762e-07 0
8.9882e-07 0
9.0002e-07 0
9.0122e-07 0
9.0243e-07 0
9.0363e-07 0
9.0484e-07 0
9.0605e-07 0
9.0726e-07 0
9.0847e-07 0
9.0968e-07 0
9.1089e-07 0
9.1211e-07 0
9.1333e-07 0
9.1455e-07 0
9.1577e-07 0
9.1699e-07 0
9.1822e-07 0
9.1944e-07 0
9.2067e-07 0
9.219e-07 0
9.2313e-07 0
9.2436e-07 0
9.256e-07 0
9.2683e-07 0
9.2807e-07 0
9.2931e-07 0
9.3055e-07 0
9.3179e-07 0
9.3304e-07 0
9.3429e-07 0
9.3553e-07 0
9.3678e-07 0
9.3803e-07 0
9.3929e-07 0
9.4054e-07 0
9.418e-07 0
9.4305e-07 0
9.4431e-07 0
9.4557e-07 0
9.4684e-07 0
9.481e-07 0
9.4937e-07 0
9.5e-07 0