File: material/gas/smooth_input/no2_uv_vis_T1_P0.txt
2.8e-07 5.7356e-24
2.8047e-07 5.8556e-24
2.8094e-07 6.1396e-24
2.8141e-07 6.0473e-24
2.8188e-07 5.8545e-24
2.8235e-07 5.8227e-24
2.8282e-07 6.0253e-24
2.8329e-07 6.7269e-24
2.8377e-07 7.0505e-24
2.8424e-07 7.2291e-24
2.8472e-07 7.5039e-24
2.8519e-07 7.7327e-24
2.8567e-07 7.9229e-24
2.8615e-07 7.9732e-24
2.8663e-07 7.8821e-24
2.8711e-07 7.8625e-24
2.8759e-07 7.8921e-24
2.8807e-07 8.0124e-24
2.8855e-07 8.26e-24
2.8903e-07 8.6075e-24
2.8951e-07 8.9863e-24
2.9e-07 9.2432e-24
2.9048e-07 9.5257e-24
2.9097e-07 1.0043e-23
2.9145e-07 1.0472e-23
2.9194e-07 1.0765e-23
2.9243e-07 1.0817e-23
2.9292e-07 1.0509e-23
2.9341e-07 1.0244e-23
2.939e-07 1.0388e-23
2.9439e-07 1.0887e-23
2.9488e-07 1.1073e-23
2.9538e-07 1.0902e-23
2.9587e-07 1.1198e-23
2.9637e-07 1.2143e-23
2.9686e-07 1.345e-23
2.9736e-07 1.4207e-23
2.9785e-07 1.3966e-23
2.9835e-07 1.3477e-23
2.9885e-07 1.3451e-23
2.9935e-07 1.3698e-23
2.9985e-07 1.3676e-23
3.0035e-07 1.3474e-23
3.0085e-07 1.3502e-23
3.0136e-07 1.3987e-23
3.0186e-07 1.4825e-23
3.0237e-07 1.5671e-23
3.0287e-07 1.6338e-23
3.0338e-07 1.6718e-23
3.0389e-07 1.6812e-23
3.0439e-07 1.6978e-23
3.049e-07 1.7171e-23
3.0541e-07 1.7051e-23
3.0592e-07 1.6927e-23
3.0643e-07 1.736e-23
3.0695e-07 1.8053e-23
3.0746e-07 1.8223e-23
3.0797e-07 1.8031e-23
3.0849e-07 1.8499e-23
3.0901e-07 1.9683e-23
3.0952e-07 2.0266e-23
3.1004e-07 2.0153e-23
3.1056e-07 2.0314e-23
3.1108e-07 2.0873e-23
3.116e-07 2.142e-23
3.1212e-07 2.1994e-23
3.1264e-07 2.2387e-23
3.1316e-07 2.2157e-23
3.1369e-07 2.18e-23
3.1421e-07 2.2291e-23
3.1474e-07 2.3327e-23
3.1526e-07 2.3761e-23
3.1579e-07 2.3373e-23
3.1632e-07 2.327e-23
3.1685e-07 2.4196e-23
3.1738e-07 2.567e-23
3.1791e-07 2.6516e-23
3.1844e-07 2.6296e-23
3.1897e-07 2.5904e-23
3.195e-07 2.6356e-23
3.2004e-07 2.7407e-23
3.2057e-07 2.7716e-23
3.2111e-07 2.7323e-23
3.2165e-07 2.7413e-23
3.2218e-07 2.8285e-23
3.2272e-07 2.9157e-23
3.2326e-07 2.9368e-23
3.238e-07 2.913e-23
3.2435e-07 2.9281e-23
3.2489e-07 3.0461e-23
3.2543e-07 3.1723e-23
3.2597e-07 3.214e-23
3.2652e-07 3.211e-23
3.2707e-07 3.2116e-23
3.2761e-07 3.2474e-23
3.2816e-07 3.2683e-23
3.2871e-07 3.2757e-23
3.2926e-07 3.3535e-23
3.2981e-07 3.4246e-23
3.3036e-07 3.4102e-23
3.3091e-07 3.3974e-23
3.3147e-07 3.4317e-23
3.3202e-07 3.5397e-23
3.3258e-07 3.7655e-23
3.3313e-07 3.9054e-23
3.3369e-07 3.7687e-23
3.3425e-07 3.6235e-23
3.3481e-07 3.6971e-23
3.3537e-07 3.7838e-23
3.3593e-07 3.8089e-23
3.3649e-07 3.865e-23
3.3705e-07 3.8469e-23
3.3761e-07 3.7989e-23
3.3818e-07 3.9765e-23
3.3874e-07 4.2564e-23
3.3931e-07 4.3205e-23
3.3988e-07 4.2584e-23
3.4045e-07 4.3203e-23
3.4102e-07 4.4612e-23
3.4159e-07 4.4443e-23
3.4216e-07 4.2078e-23
3.4273e-07 4.0046e-23
3.433e-07 4.0527e-23
3.4388e-07 4.2235e-23
3.4445e-07 4.3278e-23
3.4503e-07 4.3765e-23
3.456e-07 4.459e-23
3.4618e-07 4.6127e-23
3.4676e-07 4.7094e-23
3.4734e-07 4.7383e-23
3.4792e-07 4.9547e-23
3.485e-07 5.1353e-23
3.4909e-07 4.8463e-23
3.4967e-07 4.4646e-23
3.5025e-07 4.4738e-23
3.5084e-07 4.6861e-23
3.5143e-07 4.7626e-23
3.5201e-07 4.6769e-23
3.526e-07 4.5288e-23
3.5319e-07 4.507e-23
3.5378e-07 4.8766e-23
3.5437e-07 5.3235e-23
3.5497e-07 5.2958e-23
3.5556e-07 4.9745e-23
3.5615e-07 4.9393e-23
3.5675e-07 5.2886e-23
3.5735e-07 5.539e-23
3.5794e-07 5.3873e-23
3.5854e-07 5.0632e-23
3.5914e-07 4.8462e-23
3.5974e-07 4.8427e-23
3.6034e-07 5.0615e-23
3.6095e-07 5.2909e-23
3.6155e-07 5.3074e-23
3.6215e-07 5.2524e-23
3.6276e-07 5.2503e-23
3.6337e-07 5.2064e-23
3.6397e-07 5.2562e-23
3.6458e-07 5.5902e-23
3.6519e-07 5.9279e-23
3.658e-07 5.835e-23
3.6642e-07 5.5094e-23
3.6703e-07 5.464e-23
3.6764e-07 5.5967e-23
3.6826e-07 5.5768e-23
3.6887e-07 5.5046e-23
3.6949e-07 5.5146e-23
3.7011e-07 5.4776e-23
3.7073e-07 5.4179e-23
3.7135e-07 5.6248e-23
3.7197e-07 5.9891e-23
3.7259e-07 6.0364e-23
3.7321e-07 5.7937e-23
3.7384e-07 5.5918e-23
3.7446e-07 5.5618e-23
3.7509e-07 5.854e-23
3.7571e-07 6.3558e-23
3.7634e-07 6.5243e-23
3.7697e-07 6.1438e-23
3.776e-07 5.6517e-23
3.7823e-07 5.4815e-23
3.7887e-07 5.6996e-23
3.795e-07 6.1227e-23
3.8013e-07 6.3564e-23
3.8077e-07 6.2651e-23
3.8141e-07 6.0844e-23
3.8204e-07 5.9157e-23
3.8268e-07 5.786e-23
3.8332e-07 5.8505e-23
3.8396e-07 6.0832e-23
3.846e-07 6.2456e-23
3.8525e-07 6.2242e-23
3.8589e-07 6.0539e-23
3.8654e-07 5.9321e-23
3.8718e-07 6.0498e-23
3.8783e-07 6.1732e-23
3.8848e-07 6.2045e-23
3.8913e-07 6.2834e-23
3.8978e-07 6.3142e-23
3.9043e-07 6.2782e-23
3.9108e-07 6.3446e-23
3.9174e-07 6.4796e-23
3.9239e-07 6.356e-23
3.9305e-07 6.0216e-23
3.9371e-07 5.7982e-23
3.9436e-07 5.8069e-23
3.9502e-07 6.0932e-23
3.9568e-07 6.3398e-23
3.9635e-07 6.1834e-23
3.9701e-07 6.0124e-23
3.9767e-07 6.3081e-23
3.9834e-07 6.5796e-23
3.99e-07 6.4556e-23
3.9967e-07 6.5163e-23
4.0034e-07 6.7877e-23
4.0101e-07 6.7243e-23
4.0168e-07 6.3379e-23
4.0235e-07 5.8974e-23
4.0302e-07 5.7349e-23
4.037e-07 5.9246e-23
4.0437e-07 6.2335e-23
4.0505e-07 6.3655e-23
4.0573e-07 6.0946e-23
4.064e-07 5.6086e-23
4.0708e-07 5.4484e-23
4.0776e-07 5.9889e-23
4.0845e-07 6.6047e-23
4.0913e-07 6.5949e-23
4.0981e-07 6.5008e-23
4.105e-07 6.4892e-23
4.1118e-07 6.0878e-23
4.1187e-07 5.7601e-23
4.1256e-07 6.1947e-23
4.1325e-07 6.7838e-23
4.1394e-07 6.5973e-23
4.1463e-07 6.0366e-23
4.1533e-07 5.6113e-23
4.1602e-07 5.3057e-23
4.1672e-07 5.3195e-23
4.1741e-07 5.581e-23
4.1811e-07 5.7823e-23
4.1881e-07 5.9045e-23
4.1951e-07 6.0604e-23
4.2021e-07 6.1763e-23
4.2092e-07 6.1827e-23
4.2162e-07 6.1874e-23
4.2232e-07 6.2054e-23
4.2303e-07 6.2203e-23
4.2374e-07 6.3654e-23
4.2445e-07 6.3531e-23
4.2516e-07 5.8102e-23
4.2587e-07 5.1506e-23
4.2658e-07 5.0959e-23
4.2729e-07 5.6603e-23
4.2801e-07 5.9384e-23
4.2872e-07 5.479e-23
4.2944e-07 5.0203e-23
4.3016e-07 5.3244e-23
4.3088e-07 5.8296e-23
4.316e-07 5.6184e-23
4.3232e-07 5.1309e-23
4.3304e-07 5.2381e-23
4.3377e-07 5.7169e-23
4.3449e-07 6.2044e-23
4.3522e-07 6.4629e-23
4.3595e-07 6.048e-23
4.3667e-07 5.2344e-23
4.374e-07 4.607e-23
4.3814e-07 4.8793e-23
4.3887e-07 5.9348e-23
4.396e-07 6.2069e-23
4.4034e-07 5.3533e-23
4.4107e-07 4.4715e-23
4.4181e-07 4.1321e-23
4.4255e-07 4.2732e-23
4.4329e-07 4.6626e-23
4.4403e-07 5.3316e-23
4.4477e-07 5.8903e-23
4.4552e-07 5.5561e-23
4.4626e-07 4.8707e-23
4.4701e-07 5.0862e-23
4.4776e-07 5.9634e-23
4.485e-07 5.954e-23
4.4925e-07 5.063e-23
4.5001e-07 4.565e-23
4.5076e-07 4.5614e-23
4.5151e-07 4.6204e-23
4.5227e-07 4.6847e-23
4.5302e-07 4.5723e-23
4.5378e-07 4.3593e-23
4.5454e-07 4.3617e-23
4.553e-07 4.3848e-23
4.5606e-07 4.1859e-23
4.5682e-07 4.2041e-23
4.5759e-07 4.6543e-23
4.5835e-07 4.7729e-23
4.5912e-07 4.5331e-23
4.5989e-07 4.6009e-23
4.6065e-07 4.6637e-23
4.6142e-07 4.3694e-23
4.622e-07 4.4575e-23
4.6297e-07 5.0037e-23
4.6374e-07 4.99e-23
4.6452e-07 4.3207e-23
4.653e-07 3.6458e-23
4.6607e-07 3.5739e-23
4.6685e-07 4.0293e-23
4.6763e-07 4.1526e-23
4.6842e-07 3.8075e-23
4.692e-07 3.4939e-23
4.6998e-07 3.3845e-23
4.7077e-07 3.3765e-23
4.7156e-07 3.4045e-23
4.7234e-07 3.5336e-23
4.7313e-07 3.9979e-23
4.7393e-07 4.6082e-23
4.7472e-07 4.6638e-23
4.7551e-07 4.1705e-23
4.7631e-07 3.6696e-23
4.771e-07 3.4001e-23
4.779e-07 3.3482e-23
4.787e-07 3.5554e-23
4.795e-07 3.8364e-23
4.803e-07 3.815e-23
4.8111e-07 3.5845e-23
4.8191e-07 3.2309e-23
4.8272e-07 2.7943e-23
4.8352e-07 2.5846e-23
4.8433e-07 2.6764e-23
4.8514e-07 2.8158e-23
4.8595e-07 2.8122e-23
4.8676e-07 2.7689e-23
4.8758e-07 3.133e-23
4.8839e-07 3.8134e-23
4.8921e-07 3.9556e-23
4.9003e-07 3.3923e-23
4.9085e-07 2.7957e-23
4.9167e-07 2.5699e-23
4.9249e-07 2.6634e-23
4.9331e-07 2.9527e-23
4.9414e-07 3.2443e-23
4.9496e-07 3.3457e-23
4.9579e-07 3.2889e-23
4.9662e-07 3.0225e-23
4.9745e-07 2.5189e-23
4.9828e-07 2.0554e-23
4.9912e-07 1.785e-23
4.9995e-07 1.7088e-23
5.0079e-07 1.837e-23
5.0162e-07 2.1521e-23
5.0246e-07 2.4672e-23
5.033e-07 2.6068e-23
5.0415e-07 2.8093e-23
5.0499e-07 2.903e-23
5.0583e-07 2.596e-23
5.0668e-07 2.2545e-23
5.0753e-07 2.1446e-23
5.0837e-07 2.3042e-23
5.0922e-07 2.5686e-23
5.1008e-07 2.6439e-23
5.1093e-07 2.5397e-23
5.1178e-07 2.4312e-23
5.1264e-07 2.2754e-23
5.135e-07 2.0014e-23
5.1435e-07 1.759e-23
5.1521e-07 1.6167e-23
5.1608e-07 1.5046e-23
5.1694e-07 1.457e-23
5.178e-07 1.6079e-23
5.1867e-07 1.8463e-23
5.1954e-07 1.8994e-23
5.204e-07 1.7599e-23
5.2127e-07 1.5853e-23
5.2215e-07 1.5125e-23
5.2302e-07 1.5346e-23
5.2389e-07 1.6973e-23
5.2477e-07 2.0245e-23
5.2565e-07 2.2118e-23
5.2653e-07 2.0942e-23
5.2741e-07 1.8784e-23
5.2829e-07 1.7112e-23
5.2917e-07 1.5932e-23
5.3006e-07 1.5608e-23
5.3094e-07 1.5895e-23
5.3183e-07 1.6195e-23
5.3272e-07 1.5689e-23
5.3361e-07 1.3981e-23
5.345e-07 1.17e-23
5.354e-07 9.8064e-24
5.3629e-07 9.0487e-24
5.3719e-07 9.5647e-24
5.3809e-07 1.1177e-23
5.3899e-07 1.1936e-23
5.3989e-07 1.0681e-23
5.4079e-07 1.0308e-23
5.4169e-07 1.2421e-23
5.426e-07 1.4415e-23
5.4351e-07 1.4474e-23
5.4442e-07 1.4082e-23
5.4533e-07 1.366e-23
5.4624e-07 1.2649e-23
5.4715e-07 1.2597e-23
5.4807e-07 1.3386e-23
5.4898e-07 1.3164e-23
5.499e-07 1.1781e-23
5.5082e-07 1.0334e-23
5.5174e-07 1.0051e-23
5.5266e-07 1.0616e-23
5.5359e-07 1.0428e-23
5.5451e-07 8.9872e-24
5.5544e-07 7.4465e-24
5.5637e-07 6.7278e-24
5.573e-07 6.6567e-24
5.5823e-07 6.3919e-24
5.5917e-07 5.8834e-24
5.601e-07 5.9965e-24
5.6104e-07 6.7446e-24
5.6198e-07 7.8052e-24
5.6291e-07 9.5291e-24
5.6386e-07 1.1191e-23
5.648e-07 1.0849e-23
5.6574e-07 8.5448e-24
5.6669e-07 7.0226e-24
5.6764e-07 7.4373e-24
5.6859e-07 7.993e-24
5.6954e-07 8.4793e-24
5.7049e-07 9.5622e-24
5.7144e-07 9.9313e-24
5.724e-07 8.8281e-24
5.7336e-07 7.0612e-24
5.7431e-07 5.5578e-24
5.7527e-07 4.5117e-24
5.7624e-07 3.7996e-24
5.772e-07 3.8035e-24
5.7816e-07 4.6532e-24
5.7913e-07 5.5117e-24
5.801e-07 5.358e-24
5.8107e-07 4.4521e-24
5.8204e-07 3.8247e-24
5.8301e-07 3.8652e-24
5.8399e-07 4.5835e-24
5.8497e-07 5.504e-24
5.8594e-07 5.7222e-24
5.8692e-07 5.1831e-24
5.8791e-07 4.6476e-24
5.8889e-07 4.8697e-24
5.8987e-07 5.7121e-24
5.9086e-07 6.5706e-24
5.9185e-07 7.3057e-24
5.9284e-07 7.0662e-24
5.9383e-07 5.4996e-24
5.9482e-07 3.8981e-24
5.9582e-07 3.2244e-24
5.9681e-07 3.2517e-24
5.9781e-07 3.5425e-24
5.9881e-07 4.0177e-24
5.9981e-07 4.5268e-24
6.0081e-07 4.6087e-24
6.0182e-07 4.0131e-24
6.0282e-07 2.9558e-24
6.0383e-07 2.0812e-24
6.0484e-07 1.8096e-24
6.0585e-07 1.847e-24
6.0687e-07 1.9164e-24
6.0788e-07 1.9921e-24
6.089e-07 2.0127e-24
6.0992e-07 2.2125e-24
6.1094e-07 3.0798e-24
6.1196e-07 4.1812e-24
6.1298e-07 4.3311e-24
6.14e-07 3.6344e-24
6.1503e-07 3.3014e-24
6.1606e-07 3.612e-24
6.1709e-07 3.651e-24
6.1812e-07 3.0662e-24
6.1916e-07 2.7398e-24
6.2019e-07 2.9019e-24
6.2123e-07 2.7584e-24
6.2227e-07 2.3868e-24
6.2331e-07 2.2921e-24
6.2435e-07 2.265e-24
6.2539e-07 2.0894e-24
6.2644e-07 1.8242e-24
6.2749e-07 1.56e-24
6.2854e-07 1.3694e-24
6.2959e-07 1.2327e-24
6.3064e-07 1.2312e-24
6.3169e-07 1.3159e-24
6.3275e-07 1.3709e-24
6.3381e-07 1.407e-24
6.3487e-07 1.4265e-24
6.3593e-07 1.467e-24
6.3699e-07 1.5202e-24
6.3806e-07 1.5046e-24
6.3912e-07 1.4869e-24
6.4019e-07 1.568e-24
6.4126e-07 1.7845e-24
6.4234e-07 2.0106e-24
6.4341e-07 1.9408e-24
6.4449e-07 1.7465e-24
6.4556e-07 1.9615e-24
6.4664e-07 2.36e-24
6.4772e-07 2.1847e-24
6.4881e-07 1.5926e-24
6.4989e-07 1.3373e-24
6.5098e-07 1.3431e-24
6.5207e-07 1.2261e-24
6.5316e-07 1.0525e-24
6.5425e-07 9.8361e-25
6.5534e-07 9.6499e-25
6.5644e-07 8.7446e-25
6.5754e-07 7.569e-25
6.5864e-07 7.1097e-25
6.5974e-07 6.6635e-25
6.6084e-07 5.5509e-25
6.6195e-07 4.4783e-25
6.6305e-07 4.133e-25
6.6416e-07 4.7044e-25
6.6527e-07 5.4366e-25
6.6638e-07 4.1207e-25
6.675e-07 1.3403e-25
6.6861e-07 -0
6.6973e-07 -0
6.7085e-07 -0
6.7197e-07 -0
6.731e-07 -0
6.7422e-07 -0
6.7535e-07 -0
6.7648e-07 -0
6.7761e-07 -0
6.7874e-07 -0
6.7988e-07 -0
6.8101e-07 -0
6.8215e-07 -0
6.8329e-07 -0
6.8444e-07 -0
6.8558e-07 -0
6.8673e-07 -0
6.8788e-07 -0
6.8903e-07 -0
6.9018e-07 -0
6.9133e-07 -0
6.9249e-07 -0
6.9365e-07 -0
6.9481e-07 -0
6.9597e-07 -0
6.9713e-07 -0
6.983e-07 -0
6.9946e-07 -0
7.0063e-07 -0
7.0181e-07 -0
7.0298e-07 -0
7.0415e-07 -0
7.0533e-07 -0
7.0651e-07 -0
7.0769e-07 -0
7.0888e-07 -0
7.1006e-07 -0
7.1125e-07 -0
7.1244e-07 -0
7.1363e-07 -0
7.1482e-07 -0
7.1602e-07 -0
7.1721e-07 -0
7.1841e-07 -0
7.1961e-07 -0
7.2082e-07 -0
7.2202e-07 -0
7.2323e-07 -0
7.2444e-07 -0
7.2565e-07 -0
7.2686e-07 -0
7.2808e-07 -0
7.293e-07 -0
7.3052e-07 -0
7.3174e-07 -0
7.3296e-07 -0
7.3419e-07 -0
7.3541e-07 -0
7.3664e-07 -0
7.3788e-07 -0
7.3911e-07 -0
7.4035e-07 -0
7.4158e-07 -0
7.4282e-07 -0
7.4407e-07 -0
7.4531e-07 -0
7.4656e-07 -0
7.478e-07 -0
7.4905e-07 -0
7.5031e-07 -0
7.5156e-07 -0
7.5282e-07 -0
7.5408e-07 -0
7.5534e-07 -0
7.566e-07 -0
7.5787e-07 -0
7.5913e-07 -0
7.604e-07 -0
7.6167e-07 -0
7.6295e-07 -0
7.6422e-07 -0
7.655e-07 -0
7.6678e-07 -0
7.6806e-07 -0
7.6935e-07 -0
7.7063e-07 -0
7.7192e-07 -0
7.7321e-07 -0
7.7451e-07 -0
7.758e-07 -0
7.771e-07 -0
7.784e-07 -0
7.797e-07 -0
7.81e-07 -0
7.8231e-07 -0
7.8362e-07 -0
7.8493e-07 -0
7.8624e-07 -0
7.8755e-07 -0
7.8887e-07 -0
7.9019e-07 -0
7.9151e-07 -0
7.9283e-07 -0
7.9416e-07 -0
7.9549e-07 -0
7.9682e-07 -0
7.9815e-07 -0
7.9949e-07 -0
8.0082e-07 -0
8.0216e-07 -0
8.035e-07 -0
8.0485e-07 -0
8.0619e-07 -0
8.0754e-07 -0
8.0889e-07 -0
8.1024e-07 -0
8.116e-07 -0
8.1295e-07 -0
8.1431e-07 -0
8.1568e-07 -0
8.1704e-07 -0
8.1841e-07 -0
8.1977e-07 -0
8.2114e-07 -0
8.2252e-07 -0
8.2389e-07 -0
8.2527e-07 -0
8.2665e-07 -0
8.2803e-07 -0
8.2942e-07 -0
8.308e-07 -0
8.3219e-07 -0
8.3358e-07 -0
8.3498e-07 -0
8.3637e-07 -0
8.3777e-07 -0
8.3917e-07 -0
8.4058e-07 -0
8.4198e-07 -0
8.4339e-07 -0
8.448e-07 -0
8.4621e-07 -0
8.4763e-07 -0
8.4904e-07 -0
8.5046e-07 -0
8.5189e-07 -0
8.5331e-07 -0
8.5474e-07 -0
8.5617e-07 -0
8.576e-07 -0
8.5903e-07 -0
8.6047e-07 -0
8.6191e-07 -0
8.6335e-07 -0
8.6479e-07 -0
8.6624e-07 -0
8.6769e-07 -0
8.6914e-07 -0
8.7059e-07 -0
8.7205e-07 -0
8.735e-07 -0
8.7497e-07 -0
8.7643e-07 -0
8.7789e-07 -0
8.7936e-07 -0
8.8083e-07 -0
8.823e-07 -0
8.8378e-07 -0
8.8526e-07 -0
8.8674e-07 -0
8.8822e-07 -0
8.8971e-07 -0
8.9119e-07 -0
8.9268e-07 -0
8.9418e-07 -0
8.9567e-07 -0
8.9717e-07 -0
8.9867e-07 -0
9.0017e-07 -0
9.0168e-07 -0
9.0318e-07 -0
9.0469e-07 -0
9.0621e-07 -0
9.0772e-07 -0
9.0924e-07 -0
9.1076e-07 -0
9.1228e-07 -0
9.1381e-07 -0
9.1534e-07 -0
9.1687e-07 -0
9.184e-07 -0
9.1994e-07 -0
9.2147e-07 -0
9.2301e-07 -0
9.2456e-07 -0
9.261e-07 -0
9.2765e-07 -0
9.292e-07 -0
9.3076e-07 -0
9.3231e-07 -0
9.3387e-07 -0
9.3543e-07 -0
9.37e-07 -0
9.3857e-07 -0
9.4013e-07 -0
9.4171e-07 -0
9.4328e-07 -0
9.4486e-07 -0
9.4644e-07 -0
9.4802e-07 -0
9.4961e-07 -0
9.5119e-07 -0
9.5278e-07 -0
9.5438e-07 -0
9.5597e-07 -0
9.5757e-07 -0
9.5917e-07 -0
9.6078e-07 -0
9.6238e-07 -0
9.6399e-07 -0
9.656e-07 -0
9.6722e-07 -0
9.6884e-07 -0
9.7046e-07 -0
9.7208e-07 -0
9.737e-07 -0
9.7533e-07 -0
9.7696e-07 -0
9.786e-07 -0
9.8023e-07 -0
9.8187e-07 -0
9.8351e-07 -0
9.8516e-07 -0
9.868e-07 -0
9.8845e-07 -0
9.9011e-07 -0
9.9176e-07 -0
9.9342e-07 -0
9.9508e-07 -0
9.9675e-07 -0
9.9841e-07 -0
1.0001e-06 -0
1.0018e-06 -0
1.0034e-06 -0
1.0051e-06 -0
1.0068e-06 -0
1.0085e-06 -0
1.0102e-06 -0
1.0118e-06 -0
1.0135e-06 -0
1.0152e-06 -0
1.0169e-06 -0
1.0186e-06 -0
1.0203e-06 -0
1.022e-06 -0
1.0237e-06 -0
1.0255e-06 -0
1.0272e-06 -0
1.0289e-06 -0
1.0306e-06 -0
1.0323e-06 -0
1.0341e-06 -0
1.0358e-06 -0
1.0375e-06 -0
1.0393e-06 -0
1.041e-06 -0
1.0427e-06 -0
1.0445e-06 -0
1.0462e-06 -0
1.048e-06 -0
1.0497e-06 -0
1.0515e-06 -0
1.0532e-06 -0
1.055e-06 -0
1.0568e-06 -0
1.0585e-06 -0
1.0603e-06 -0
1.0621e-06 -0
1.0639e-06 -0
1.0656e-06 -0
1.0674e-06 -0
1.0692e-06 -0
1.071e-06 -0
1.0728e-06 -0
1.0746e-06 -0
1.0764e-06 -0
1.0782e-06 -0
1.08e-06 -0
1.0818e-06 -0
1.0836e-06 -0
1.0854e-06 -0
1.0872e-06 -0
1.089e-06 -0
1.0908e-06 -0
1.0927e-06 -0
1.0945e-06 -0
1.0963e-06 -0
1.0982e-06 -0
1.1e-06 -0