File: material/gas/smooth_input/no2_uv_vis_T0_P1.txt
2.8e-07 5.7347e-24
2.8047e-07 5.8506e-24
2.8094e-07 6.1181e-24
2.8141e-07 6.0526e-24
2.8188e-07 5.8673e-24
2.8235e-07 5.8216e-24
2.8282e-07 6.0222e-24
2.8329e-07 6.6656e-24
2.8377e-07 7.0323e-24
2.8424e-07 7.2219e-24
2.8472e-07 7.4861e-24
2.8519e-07 7.7241e-24
2.8567e-07 7.9185e-24
2.8615e-07 7.9755e-24
2.8663e-07 7.8867e-24
2.8711e-07 7.8595e-24
2.8759e-07 7.8896e-24
2.8807e-07 8.008e-24
2.8855e-07 8.2509e-24
2.8903e-07 8.5922e-24
2.8951e-07 8.9726e-24
2.9e-07 9.2376e-24
2.9048e-07 9.5134e-24
2.9097e-07 1.0016e-23
2.9145e-07 1.0456e-23
2.9194e-07 1.076e-23
2.9243e-07 1.0822e-23
2.9292e-07 1.0525e-23
2.9341e-07 1.0252e-23
2.939e-07 1.0385e-23
2.9439e-07 1.0878e-23
2.9488e-07 1.1079e-23
2.9538e-07 1.091e-23
2.9587e-07 1.1188e-23
2.9637e-07 1.2127e-23
2.9686e-07 1.3427e-23
2.9736e-07 1.4201e-23
2.9785e-07 1.3976e-23
2.9835e-07 1.3482e-23
2.9885e-07 1.3447e-23
2.9935e-07 1.3694e-23
2.9985e-07 1.3678e-23
3.0035e-07 1.3476e-23
3.0085e-07 1.3501e-23
3.0136e-07 1.3985e-23
3.0186e-07 1.4824e-23
3.0237e-07 1.5666e-23
3.0287e-07 1.6334e-23
3.0338e-07 1.6719e-23
3.0389e-07 1.6815e-23
3.0439e-07 1.6978e-23
3.049e-07 1.7173e-23
3.0541e-07 1.7056e-23
3.0592e-07 1.6931e-23
3.0643e-07 1.7359e-23
3.0695e-07 1.8052e-23
3.0746e-07 1.8227e-23
3.0797e-07 1.8035e-23
3.0849e-07 1.8502e-23
3.0901e-07 1.9682e-23
3.0952e-07 2.0272e-23
3.1004e-07 2.016e-23
3.1056e-07 2.032e-23
3.1108e-07 2.0879e-23
3.116e-07 2.1425e-23
3.1212e-07 2.1999e-23
3.1264e-07 2.2394e-23
3.1316e-07 2.216e-23
3.1369e-07 2.1796e-23
3.1421e-07 2.228e-23
3.1474e-07 2.3326e-23
3.1526e-07 2.3768e-23
3.1579e-07 2.3384e-23
3.1632e-07 2.3281e-23
3.1685e-07 2.4211e-23
3.1738e-07 2.5686e-23
3.1791e-07 2.653e-23
3.1844e-07 2.6313e-23
3.1897e-07 2.5921e-23
3.195e-07 2.6375e-23
3.2004e-07 2.7422e-23
3.2057e-07 2.7734e-23
3.2111e-07 2.7344e-23
3.2165e-07 2.7436e-23
3.2218e-07 2.8306e-23
3.2272e-07 2.9173e-23
3.2326e-07 2.939e-23
3.238e-07 2.9156e-23
3.2435e-07 2.931e-23
3.2489e-07 3.0486e-23
3.2543e-07 3.1744e-23
3.2597e-07 3.2168e-23
3.2652e-07 3.2145e-23
3.2707e-07 3.2153e-23
3.2761e-07 3.2505e-23
3.2816e-07 3.271e-23
3.2871e-07 3.2793e-23
3.2926e-07 3.3587e-23
3.2981e-07 3.4302e-23
3.3036e-07 3.4143e-23
3.3091e-07 3.4006e-23
3.3147e-07 3.4353e-23
3.3202e-07 3.5453e-23
3.3258e-07 3.7732e-23
3.3313e-07 3.9126e-23
3.3369e-07 3.774e-23
3.3425e-07 3.629e-23
3.3481e-07 3.7052e-23
3.3537e-07 3.7953e-23
3.3593e-07 3.8211e-23
3.3649e-07 3.8746e-23
3.3705e-07 3.8531e-23
3.3761e-07 3.8045e-23
3.3818e-07 3.986e-23
3.3874e-07 4.2724e-23
3.3931e-07 4.3387e-23
3.3988e-07 4.2727e-23
3.4045e-07 4.3318e-23
3.4102e-07 4.4768e-23
3.4159e-07 4.4675e-23
3.4216e-07 4.2361e-23
3.4273e-07 4.0322e-23
3.433e-07 4.0729e-23
3.4388e-07 4.235e-23
3.4445e-07 4.3374e-23
3.4503e-07 4.3932e-23
3.456e-07 4.4873e-23
3.4618e-07 4.6494e-23
3.4676e-07 4.7424e-23
3.4734e-07 4.7617e-23
3.4792e-07 4.9804e-23
3.485e-07 5.1726e-23
3.4909e-07 4.8909e-23
3.4967e-07 4.5105e-23
3.5025e-07 4.5173e-23
3.5084e-07 4.719e-23
3.5143e-07 4.7822e-23
3.5201e-07 4.6959e-23
3.526e-07 4.5575e-23
3.5319e-07 4.544e-23
3.5378e-07 4.9177e-23
3.5437e-07 5.3629e-23
3.5497e-07 5.33e-23
3.5556e-07 5.0073e-23
3.5615e-07 4.9752e-23
3.5675e-07 5.3292e-23
3.5735e-07 5.5827e-23
3.5794e-07 5.4314e-23
3.5854e-07 5.1037e-23
3.5914e-07 4.8776e-23
3.5974e-07 4.8676e-23
3.6034e-07 5.0893e-23
3.6095e-07 5.325e-23
3.6155e-07 5.3467e-23
3.6215e-07 5.2973e-23
3.6276e-07 5.2989e-23
3.6337e-07 5.2542e-23
3.6397e-07 5.3014e-23
3.6458e-07 5.6335e-23
3.6519e-07 5.9721e-23
3.658e-07 5.8846e-23
3.6642e-07 5.567e-23
3.6703e-07 5.5298e-23
3.6764e-07 5.6635e-23
3.6826e-07 5.6336e-23
3.6887e-07 5.5548e-23
3.6949e-07 5.5756e-23
3.7011e-07 5.5716e-23
3.7073e-07 5.5453e-23
3.7135e-07 5.7511e-23
3.7197e-07 6.09e-23
3.7259e-07 6.1171e-23
3.7321e-07 5.865e-23
3.7384e-07 5.657e-23
3.7446e-07 5.5975e-23
3.7509e-07 5.8043e-23
3.7571e-07 6.2478e-23
3.7634e-07 6.4703e-23
3.7697e-07 6.1582e-23
3.776e-07 5.6909e-23
3.7823e-07 5.5297e-23
3.7887e-07 5.7494e-23
3.795e-07 6.1707e-23
3.8013e-07 6.4028e-23
3.8077e-07 6.3103e-23
3.8141e-07 6.1292e-23
3.8204e-07 5.96e-23
3.8268e-07 5.8302e-23
3.8332e-07 5.896e-23
3.8396e-07 6.131e-23
3.846e-07 6.2956e-23
3.8525e-07 6.2753e-23
3.8589e-07 6.1043e-23
3.8654e-07 5.9789e-23
3.8718e-07 6.0904e-23
3.8783e-07 6.2089e-23
3.8848e-07 6.2359e-23
3.8913e-07 6.3093e-23
3.8978e-07 6.3355e-23
3.9043e-07 6.2987e-23
3.9108e-07 6.3657e-23
3.9174e-07 6.5014e-23
3.9239e-07 6.3773e-23
3.9305e-07 6.0433e-23
3.9371e-07 5.8203e-23
3.9436e-07 5.8287e-23
3.9502e-07 6.1133e-23
3.9568e-07 6.3561e-23
3.9635e-07 6.1927e-23
3.9701e-07 6.0144e-23
3.9767e-07 6.3079e-23
3.9834e-07 6.581e-23
3.99e-07 6.4581e-23
3.9967e-07 6.5193e-23
4.0034e-07 6.7932e-23
4.0101e-07 6.734e-23
4.0168e-07 6.3512e-23
4.0235e-07 5.913e-23
4.0302e-07 5.7527e-23
4.037e-07 5.9445e-23
4.0437e-07 6.2545e-23
4.0505e-07 6.3877e-23
4.0573e-07 6.1174e-23
4.064e-07 5.6312e-23
4.0708e-07 5.4707e-23
4.0776e-07 6.0116e-23
4.0845e-07 6.6278e-23
4.0913e-07 6.6181e-23
4.0981e-07 6.5243e-23
4.105e-07 6.5127e-23
4.1118e-07 6.1109e-23
4.1187e-07 5.7826e-23
4.1256e-07 6.2171e-23
4.1325e-07 6.806e-23
4.1394e-07 6.6178e-23
4.1463e-07 6.0531e-23
4.1533e-07 5.6224e-23
4.1602e-07 5.3123e-23
4.1672e-07 5.325e-23
4.1741e-07 5.5902e-23
4.1811e-07 5.7942e-23
4.1881e-07 5.917e-23
4.1951e-07 6.0749e-23
4.2021e-07 6.1933e-23
4.2092e-07 6.2015e-23
4.2162e-07 6.2061e-23
4.2232e-07 6.2241e-23
4.2303e-07 6.2387e-23
4.2374e-07 6.3834e-23
4.2445e-07 6.3702e-23
4.2516e-07 5.8254e-23
4.2587e-07 5.164e-23
4.2658e-07 5.1099e-23
4.2729e-07 5.6761e-23
4.2801e-07 5.955e-23
4.2872e-07 5.4949e-23
4.2944e-07 5.0356e-23
4.3016e-07 5.3402e-23
4.3088e-07 5.8458e-23
4.316e-07 5.6337e-23
4.3232e-07 5.145e-23
4.3304e-07 5.2524e-23
4.3377e-07 5.732e-23
4.3449e-07 6.2205e-23
4.3522e-07 6.4792e-23
4.3595e-07 6.0635e-23
4.3667e-07 5.248e-23
4.374e-07 4.6186e-23
4.3814e-07 4.89e-23
4.3887e-07 5.9451e-23
4.396e-07 6.2155e-23
4.4034e-07 5.3593e-23
4.4107e-07 4.4737e-23
4.4181e-07 4.13e-23
4.4255e-07 4.2674e-23
4.4329e-07 4.656e-23
4.4403e-07 5.3266e-23
4.4477e-07 5.8851e-23
4.4552e-07 5.5508e-23
4.4626e-07 4.8683e-23
4.4701e-07 5.0867e-23
4.4776e-07 5.9664e-23
4.485e-07 5.9598e-23
4.4925e-07 5.0698e-23
4.5001e-07 4.572e-23
4.5076e-07 4.5688e-23
4.5151e-07 4.6281e-23
4.5227e-07 4.6927e-23
4.5302e-07 4.58e-23
4.5378e-07 4.3666e-23
4.5454e-07 4.3687e-23
4.553e-07 4.3914e-23
4.5606e-07 4.1921e-23
4.5682e-07 4.2096e-23
4.5759e-07 4.6599e-23
4.5835e-07 4.7783e-23
4.5912e-07 4.5379e-23
4.5989e-07 4.6052e-23
4.6065e-07 4.6679e-23
4.6142e-07 4.3733e-23
4.622e-07 4.4618e-23
4.6297e-07 5.009e-23
4.6374e-07 4.9957e-23
4.6452e-07 4.3262e-23
4.653e-07 3.6507e-23
4.6607e-07 3.5782e-23
4.6685e-07 4.033e-23
4.6763e-07 4.1554e-23
4.6842e-07 3.8093e-23
4.692e-07 3.4943e-23
4.6998e-07 3.3843e-23
4.7077e-07 3.3775e-23
4.7156e-07 3.4063e-23
4.7234e-07 3.5349e-23
4.7313e-07 4.0004e-23
4.7393e-07 4.6117e-23
4.7472e-07 4.6678e-23
4.7551e-07 4.1744e-23
4.7631e-07 3.6731e-23
4.771e-07 3.4031e-23
4.779e-07 3.3508e-23
4.787e-07 3.5579e-23
4.795e-07 3.8386e-23
4.803e-07 3.8172e-23
4.8111e-07 3.5866e-23
4.8191e-07 3.2328e-23
4.8272e-07 2.7961e-23
4.8352e-07 2.5864e-23
4.8433e-07 2.6778e-23
4.8514e-07 2.8166e-23
4.8595e-07 2.8134e-23
4.8676e-07 2.7704e-23
4.8758e-07 3.1344e-23
4.8839e-07 3.8151e-23
4.8921e-07 3.9575e-23
4.9003e-07 3.3942e-23
4.9085e-07 2.7977e-23
4.9167e-07 2.5718e-23
4.9249e-07 2.6656e-23
4.9331e-07 2.9551e-23
4.9414e-07 3.2469e-23
4.9496e-07 3.3482e-23
4.9579e-07 3.2912e-23
4.9662e-07 3.0246e-23
4.9745e-07 2.5207e-23
4.9828e-07 2.0569e-23
4.9912e-07 1.7862e-23
4.9995e-07 1.7097e-23
5.0079e-07 1.8373e-23
5.0162e-07 2.1512e-23
5.0246e-07 2.4645e-23
5.033e-07 2.6021e-23
5.0415e-07 2.803e-23
5.0499e-07 2.8974e-23
5.0583e-07 2.5919e-23
5.0668e-07 2.2507e-23
5.0753e-07 2.1412e-23
5.0837e-07 2.3008e-23
5.0922e-07 2.5662e-23
5.1008e-07 2.6425e-23
5.1093e-07 2.5394e-23
5.1178e-07 2.4318e-23
5.1264e-07 2.2766e-23
5.135e-07 2.0027e-23
5.1435e-07 1.7602e-23
5.1521e-07 1.6178e-23
5.1608e-07 1.5056e-23
5.1694e-07 1.4579e-23
5.178e-07 1.6089e-23
5.1867e-07 1.8474e-23
5.1954e-07 1.9004e-23
5.204e-07 1.7608e-23
5.2127e-07 1.5862e-23
5.2215e-07 1.5133e-23
5.2302e-07 1.5354e-23
5.2389e-07 1.6982e-23
5.2477e-07 2.0254e-23
5.2565e-07 2.2129e-23
5.2653e-07 2.0952e-23
5.2741e-07 1.8794e-23
5.2829e-07 1.7121e-23
5.2917e-07 1.5941e-23
5.3006e-07 1.5617e-23
5.3094e-07 1.5904e-23
5.3183e-07 1.6204e-23
5.3272e-07 1.5697e-23
5.3361e-07 1.3988e-23
5.345e-07 1.1706e-23
5.354e-07 9.8118e-24
5.3629e-07 9.0539e-24
5.3719e-07 9.5703e-24
5.3809e-07 1.1183e-23
5.3899e-07 1.1941e-23
5.3989e-07 1.0682e-23
5.4079e-07 1.0303e-23
5.4169e-07 1.2414e-23
5.426e-07 1.4408e-23
5.4351e-07 1.4468e-23
5.4442e-07 1.4078e-23
5.4533e-07 1.3655e-23
5.4624e-07 1.2644e-23
5.4715e-07 1.2595e-23
5.4807e-07 1.3387e-23
5.4898e-07 1.3168e-23
5.499e-07 1.1785e-23
5.5082e-07 1.0338e-23
5.5174e-07 1.0055e-23
5.5266e-07 1.0621e-23
5.5359e-07 1.0433e-23
5.5451e-07 8.991e-24
5.5544e-07 7.4493e-24
5.5637e-07 6.7301e-24
5.573e-07 6.659e-24
5.5823e-07 6.3942e-24
5.5917e-07 5.8856e-24
5.601e-07 5.999e-24
5.6104e-07 6.7475e-24
5.6198e-07 7.8086e-24
5.6291e-07 9.5333e-24
5.6386e-07 1.1196e-23
5.648e-07 1.0854e-23
5.6574e-07 8.5482e-24
5.6669e-07 7.0251e-24
5.6764e-07 7.4373e-24
5.6859e-07 7.987e-24
5.6954e-07 8.472e-24
5.7049e-07 9.5578e-24
5.7144e-07 9.9282e-24
5.724e-07 8.8251e-24
5.7336e-07 7.0584e-24
5.7431e-07 5.5559e-24
5.7527e-07 4.5107e-24
5.7624e-07 3.7992e-24
5.772e-07 3.8032e-24
5.7816e-07 4.6539e-24
5.7913e-07 5.5133e-24
5.801e-07 5.3599e-24
5.8107e-07 4.4538e-24
5.8204e-07 3.8263e-24
5.8301e-07 3.8667e-24
5.8399e-07 4.5849e-24
5.8497e-07 5.5051e-24
5.8594e-07 5.7211e-24
5.8692e-07 5.1769e-24
5.8791e-07 4.6371e-24
5.8889e-07 4.8553e-24
5.8987e-07 5.6913e-24
5.9086e-07 6.5496e-24
5.9185e-07 7.2815e-24
5.9284e-07 7.0451e-24
5.9383e-07 5.4796e-24
5.9482e-07 3.8857e-24
5.9582e-07 3.2168e-24
5.9681e-07 3.2443e-24
5.9781e-07 3.5353e-24
5.9881e-07 4.0104e-24
5.9981e-07 4.5214e-24
6.0081e-07 4.6061e-24
6.0182e-07 4.0127e-24
6.0282e-07 2.9565e-24
6.0383e-07 2.0821e-24
6.0484e-07 1.8104e-24
6.0585e-07 1.8478e-24
6.0687e-07 1.9172e-24
6.0788e-07 1.9928e-24
6.089e-07 2.0134e-24
6.0992e-07 2.2133e-24
6.1094e-07 3.081e-24
6.1196e-07 4.1831e-24
6.1298e-07 4.3331e-24
6.14e-07 3.6363e-24
6.1503e-07 3.3034e-24
6.1606e-07 3.6143e-24
6.1709e-07 3.6535e-24
6.1812e-07 3.0684e-24
6.1916e-07 2.7419e-24
6.2019e-07 2.9042e-24
6.2123e-07 2.7607e-24
6.2227e-07 2.3888e-24
6.2331e-07 2.2942e-24
6.2435e-07 2.2671e-24
6.2539e-07 2.0913e-24
6.2644e-07 1.8243e-24
6.2749e-07 1.5588e-24
6.2854e-07 1.3687e-24
6.2959e-07 1.2325e-24
6.3064e-07 1.2319e-24
6.3169e-07 1.3165e-24
6.3275e-07 1.3714e-24
6.3381e-07 1.4079e-24
6.3487e-07 1.4275e-24
6.3593e-07 1.4682e-24
6.3699e-07 1.5215e-24
6.3806e-07 1.5059e-24
6.3912e-07 1.4884e-24
6.4019e-07 1.5695e-24
6.4126e-07 1.7861e-24
6.4234e-07 2.0126e-24
6.4341e-07 1.9423e-24
6.4449e-07 1.7473e-24
6.4556e-07 1.9615e-24
6.4664e-07 2.3576e-24
6.4772e-07 2.1804e-24
6.4881e-07 1.5897e-24
6.4989e-07 1.335e-24
6.5098e-07 1.3413e-24
6.5207e-07 1.2249e-24
6.5316e-07 1.0518e-24
6.5425e-07 9.8251e-25
6.5534e-07 9.636e-25
6.5644e-07 8.7343e-25
6.5754e-07 7.5646e-25
6.5864e-07 7.1087e-25
6.5974e-07 6.6658e-25
6.6084e-07 5.5566e-25
6.6195e-07 4.4846e-25
6.6305e-07 4.14e-25
6.6416e-07 4.7123e-25
6.6527e-07 5.4465e-25
6.6638e-07 4.1289e-25
6.675e-07 1.3431e-25
6.6861e-07 -0
6.6973e-07 -0
6.7085e-07 -0
6.7197e-07 -0
6.731e-07 -0
6.7422e-07 -0
6.7535e-07 -0
6.7648e-07 -0
6.7761e-07 -0
6.7874e-07 -0
6.7988e-07 -0
6.8101e-07 -0
6.8215e-07 -0
6.8329e-07 -0
6.8444e-07 -0
6.8558e-07 -0
6.8673e-07 -0
6.8788e-07 -0
6.8903e-07 -0
6.9018e-07 -0
6.9133e-07 -0
6.9249e-07 -0
6.9365e-07 -0
6.9481e-07 -0
6.9597e-07 -0
6.9713e-07 -0
6.983e-07 -0
6.9946e-07 -0
7.0063e-07 -0
7.0181e-07 -0
7.0298e-07 -0
7.0415e-07 -0
7.0533e-07 -0
7.0651e-07 -0
7.0769e-07 -0
7.0888e-07 -0
7.1006e-07 -0
7.1125e-07 -0
7.1244e-07 -0
7.1363e-07 -0
7.1482e-07 -0
7.1602e-07 -0
7.1721e-07 -0
7.1841e-07 -0
7.1961e-07 -0
7.2082e-07 -0
7.2202e-07 -0
7.2323e-07 -0
7.2444e-07 -0
7.2565e-07 -0
7.2686e-07 -0
7.2808e-07 -0
7.293e-07 -0
7.3052e-07 -0
7.3174e-07 -0
7.3296e-07 -0
7.3419e-07 -0
7.3541e-07 -0
7.3664e-07 -0
7.3788e-07 -0
7.3911e-07 -0
7.4035e-07 -0
7.4158e-07 -0
7.4282e-07 -0
7.4407e-07 -0
7.4531e-07 -0
7.4656e-07 -0
7.478e-07 -0
7.4905e-07 -0
7.5031e-07 -0
7.5156e-07 -0
7.5282e-07 -0
7.5408e-07 -0
7.5534e-07 -0
7.566e-07 -0
7.5787e-07 -0
7.5913e-07 -0
7.604e-07 -0
7.6167e-07 -0
7.6295e-07 -0
7.6422e-07 -0
7.655e-07 -0
7.6678e-07 -0
7.6806e-07 -0
7.6935e-07 -0
7.7063e-07 -0
7.7192e-07 -0
7.7321e-07 -0
7.7451e-07 -0
7.758e-07 -0
7.771e-07 -0
7.784e-07 -0
7.797e-07 -0
7.81e-07 -0
7.8231e-07 -0
7.8362e-07 -0
7.8493e-07 -0
7.8624e-07 -0
7.8755e-07 -0
7.8887e-07 -0
7.9019e-07 -0
7.9151e-07 -0
7.9283e-07 -0
7.9416e-07 -0
7.9549e-07 -0
7.9682e-07 -0
7.9815e-07 -0
7.9949e-07 -0
8.0082e-07 -0
8.0216e-07 -0
8.035e-07 -0
8.0485e-07 -0
8.0619e-07 -0
8.0754e-07 -0
8.0889e-07 -0
8.1024e-07 -0
8.116e-07 -0
8.1295e-07 -0
8.1431e-07 -0
8.1568e-07 -0
8.1704e-07 -0
8.1841e-07 -0
8.1977e-07 -0
8.2114e-07 -0
8.2252e-07 -0
8.2389e-07 -0
8.2527e-07 -0
8.2665e-07 -0
8.2803e-07 -0
8.2942e-07 -0
8.308e-07 -0
8.3219e-07 -0
8.3358e-07 -0
8.3498e-07 -0
8.3637e-07 -0
8.3777e-07 -0
8.3917e-07 -0
8.4058e-07 -0
8.4198e-07 -0
8.4339e-07 -0
8.448e-07 -0
8.4621e-07 -0
8.4763e-07 -0
8.4904e-07 -0
8.5046e-07 -0
8.5189e-07 -0
8.5331e-07 -0
8.5474e-07 -0
8.5617e-07 -0
8.576e-07 -0
8.5903e-07 -0
8.6047e-07 -0
8.6191e-07 -0
8.6335e-07 -0
8.6479e-07 -0
8.6624e-07 -0
8.6769e-07 -0
8.6914e-07 -0
8.7059e-07 -0
8.7205e-07 -0
8.735e-07 -0
8.7497e-07 -0
8.7643e-07 -0
8.7789e-07 -0
8.7936e-07 -0
8.8083e-07 -0
8.823e-07 -0
8.8378e-07 -0
8.8526e-07 -0
8.8674e-07 -0
8.8822e-07 -0
8.8971e-07 -0
8.9119e-07 -0
8.9268e-07 -0
8.9418e-07 -0
8.9567e-07 -0
8.9717e-07 -0
8.9867e-07 -0
9.0017e-07 -0
9.0168e-07 -0
9.0318e-07 -0
9.0469e-07 -0
9.0621e-07 -0
9.0772e-07 -0
9.0924e-07 -0
9.1076e-07 -0
9.1228e-07 -0
9.1381e-07 -0
9.1534e-07 -0
9.1687e-07 -0
9.184e-07 -0
9.1994e-07 -0
9.2147e-07 -0
9.2301e-07 -0
9.2456e-07 -0
9.261e-07 -0
9.2765e-07 -0
9.292e-07 -0
9.3076e-07 -0
9.3231e-07 -0
9.3387e-07 -0
9.3543e-07 -0
9.37e-07 -0
9.3857e-07 -0
9.4013e-07 -0
9.4171e-07 -0
9.4328e-07 -0
9.4486e-07 -0
9.4644e-07 -0
9.4802e-07 -0
9.4961e-07 -0
9.5119e-07 -0
9.5278e-07 -0
9.5438e-07 -0
9.5597e-07 -0
9.5757e-07 -0
9.5917e-07 -0
9.6078e-07 -0
9.6238e-07 -0
9.6399e-07 -0
9.656e-07 -0
9.6722e-07 -0
9.6884e-07 -0
9.7046e-07 -0
9.7208e-07 -0
9.737e-07 -0
9.7533e-07 -0
9.7696e-07 -0
9.786e-07 -0
9.8023e-07 -0
9.8187e-07 -0
9.8351e-07 -0
9.8516e-07 -0
9.868e-07 -0
9.8845e-07 -0
9.9011e-07 -0
9.9176e-07 -0
9.9342e-07 -0
9.9508e-07 -0
9.9675e-07 -0
9.9841e-07 -0
1.0001e-06 -0
1.0018e-06 -0
1.0034e-06 -0
1.0051e-06 -0
1.0068e-06 -0
1.0085e-06 -0
1.0102e-06 -0
1.0118e-06 -0
1.0135e-06 -0
1.0152e-06 -0
1.0169e-06 -0
1.0186e-06 -0
1.0203e-06 -0
1.022e-06 -0
1.0237e-06 -0
1.0255e-06 -0
1.0272e-06 -0
1.0289e-06 -0
1.0306e-06 -0
1.0323e-06 -0
1.0341e-06 -0
1.0358e-06 -0
1.0375e-06 -0
1.0393e-06 -0
1.041e-06 -0
1.0427e-06 -0
1.0445e-06 -0
1.0462e-06 -0
1.048e-06 -0
1.0497e-06 -0
1.0515e-06 -0
1.0532e-06 -0
1.055e-06 -0
1.0568e-06 -0
1.0585e-06 -0
1.0603e-06 -0
1.0621e-06 -0
1.0639e-06 -0
1.0656e-06 -0
1.0674e-06 -0
1.0692e-06 -0
1.071e-06 -0
1.0728e-06 -0
1.0746e-06 -0
1.0764e-06 -0
1.0782e-06 -0
1.08e-06 -0
1.0818e-06 -0
1.0836e-06 -0
1.0854e-06 -0
1.0872e-06 -0
1.089e-06 -0
1.0908e-06 -0
1.0927e-06 -0
1.0945e-06 -0
1.0963e-06 -0
1.0982e-06 -0
1.1e-06 -0