File: material/gas/smooth_input/no2_uv_vis_toa_T1_P0.txt
2.8e-07 5.6421e-24
2.8047e-07 5.7984e-24
2.8094e-07 6.0399e-24
2.814e-07 6.2003e-24
2.8187e-07 5.9191e-24
2.8234e-07 5.7145e-24
2.8282e-07 5.9025e-24
2.8329e-07 6.4037e-24
2.8376e-07 7.0458e-24
2.8423e-07 7.1385e-24
2.8471e-07 7.3938e-24
2.8518e-07 7.678e-24
2.8566e-07 7.9117e-24
2.8614e-07 8.0451e-24
2.8661e-07 7.9106e-24
2.8709e-07 7.7971e-24
2.8757e-07 7.8975e-24
2.8805e-07 7.9182e-24
2.8853e-07 8.1918e-24
2.8901e-07 8.5034e-24
2.895e-07 8.9269e-24
2.8998e-07 9.2866e-24
2.9046e-07 9.3522e-24
2.9095e-07 9.895e-24
2.9143e-07 1.0467e-23
2.9192e-07 1.0693e-23
2.9241e-07 1.1004e-23
2.929e-07 1.0578e-23
2.9339e-07 1.0181e-23
2.9388e-07 1.017e-23
2.9437e-07 1.0816e-23
2.9486e-07 1.1361e-23
2.9535e-07 1.0789e-23
2.9584e-07 1.0824e-23
2.9634e-07 1.1887e-23
2.9683e-07 1.3254e-23
2.9733e-07 1.4605e-23
2.9782e-07 1.4175e-23
2.9832e-07 1.3341e-23
2.9882e-07 1.3303e-23
2.9932e-07 1.3761e-23
2.9982e-07 1.385e-23
3.0032e-07 1.3368e-23
3.0082e-07 1.341e-23
3.0132e-07 1.3709e-23
3.0182e-07 1.475e-23
3.0233e-07 1.5646e-23
3.0283e-07 1.629e-23
3.0334e-07 1.6879e-23
3.0384e-07 1.6758e-23
3.0435e-07 1.6858e-23
3.0486e-07 1.7313e-23
3.0537e-07 1.7163e-23
3.0588e-07 1.671e-23
3.0639e-07 1.7135e-23
3.069e-07 1.8163e-23
3.0741e-07 1.8472e-23
3.0792e-07 1.7868e-23
3.0844e-07 1.7951e-23
3.0895e-07 1.9737e-23
3.0947e-07 2.0602e-23
3.0998e-07 1.999e-23
3.105e-07 2.0131e-23
3.1102e-07 2.0866e-23
3.1154e-07 2.1388e-23
3.1206e-07 2.1768e-23
3.1258e-07 2.2715e-23
3.131e-07 2.2283e-23
3.1362e-07 2.1557e-23
3.1415e-07 2.1832e-23
3.1467e-07 2.3408e-23
3.152e-07 2.4178e-23
3.1572e-07 2.3367e-23
3.1625e-07 2.2885e-23
3.1678e-07 2.3833e-23
3.1731e-07 2.563e-23
3.1784e-07 2.6884e-23
3.1837e-07 2.6461e-23
3.189e-07 2.5665e-23
3.1943e-07 2.588e-23
3.1996e-07 2.7576e-23
3.205e-07 2.814e-23
3.2103e-07 2.7173e-23
3.2157e-07 2.7057e-23
3.2211e-07 2.8111e-23
3.2264e-07 2.9272e-23
3.2318e-07 2.9525e-23
3.2372e-07 2.9168e-23
3.2426e-07 2.88e-23
3.248e-07 3.0009e-23
3.2535e-07 3.2175e-23
3.2589e-07 3.1972e-23
3.2643e-07 3.2355e-23
3.2698e-07 3.1808e-23
3.2752e-07 3.2396e-23
3.2807e-07 3.3016e-23
3.2862e-07 3.2291e-23
3.2917e-07 3.326e-23
3.2972e-07 3.4701e-23
3.3027e-07 3.4154e-23
3.3082e-07 3.3687e-23
3.3137e-07 3.4337e-23
3.3192e-07 3.4525e-23
3.3248e-07 3.6997e-23
3.3303e-07 4.0321e-23
3.3359e-07 3.837e-23
3.3414e-07 3.5203e-23
3.347e-07 3.6502e-23
3.3526e-07 3.8608e-23
3.3582e-07 3.7299e-23
3.3638e-07 3.8865e-23
3.3694e-07 3.9151e-23
3.375e-07 3.722e-23
3.3807e-07 3.8181e-23
3.3863e-07 4.3263e-23
3.392e-07 4.3878e-23
3.3976e-07 4.2056e-23
3.4033e-07 4.2575e-23
3.409e-07 4.4556e-23
3.4147e-07 4.5676e-23
3.4204e-07 4.2761e-23
3.4261e-07 3.9434e-23
3.4318e-07 3.9458e-23
3.4375e-07 4.2438e-23
3.4433e-07 4.3096e-23
3.449e-07 4.3844e-23
3.4548e-07 4.3902e-23
3.4605e-07 4.5759e-23
3.4663e-07 4.7669e-23
3.4721e-07 4.6892e-23
3.4779e-07 4.746e-23
3.4837e-07 5.3863e-23
3.4895e-07 5.0215e-23
3.4953e-07 4.3598e-23
3.5012e-07 4.3601e-23
3.507e-07 4.6766e-23
3.5129e-07 4.8583e-23
3.5187e-07 4.6505e-23
3.5246e-07 4.6499e-23
3.5305e-07 4.3083e-23
3.5364e-07 4.655e-23
3.5423e-07 5.4127e-23
3.5482e-07 5.5101e-23
3.5541e-07 4.9804e-23
3.5601e-07 4.7361e-23
3.566e-07 5.1361e-23
3.572e-07 5.7012e-23
3.5779e-07 5.5051e-23
3.5839e-07 5.1322e-23
3.5899e-07 4.8056e-23
3.5959e-07 4.7819e-23
3.6019e-07 4.9002e-23
3.6079e-07 5.3492e-23
3.6139e-07 5.3675e-23
3.6199e-07 5.1954e-23
3.626e-07 5.2849e-23
3.632e-07 5.2531e-23
3.6381e-07 5.0911e-23
3.6442e-07 5.4209e-23
3.6502e-07 5.9776e-23
3.6563e-07 6.0865e-23
3.6624e-07 5.4819e-23
3.6686e-07 5.3029e-23
3.6747e-07 5.6723e-23
3.6808e-07 5.6296e-23
3.687e-07 5.4594e-23
3.6931e-07 5.5243e-23
3.6993e-07 5.5364e-23
3.7054e-07 5.3891e-23
3.7116e-07 5.3828e-23
3.7178e-07 5.9765e-23
3.724e-07 6.2169e-23
3.7302e-07 5.8476e-23
3.7365e-07 5.5989e-23
3.7427e-07 5.5306e-23
3.749e-07 5.5167e-23
3.7552e-07 6.404e-23
3.7615e-07 6.6529e-23
3.7678e-07 6.4181e-23
3.7741e-07 5.6316e-23
3.7804e-07 5.4286e-23
3.7867e-07 5.4788e-23
3.793e-07 5.9645e-23
3.7993e-07 6.4925e-23
3.8057e-07 6.3354e-23
3.812e-07 6.1063e-23
3.8184e-07 6.017e-23
3.8247e-07 5.7629e-23
3.8311e-07 5.7322e-23
3.8375e-07 6.0135e-23
3.8439e-07 6.2625e-23
3.8503e-07 6.3007e-23
3.8568e-07 6.188e-23
3.8632e-07 5.8044e-23
3.8697e-07 5.9608e-23
3.8761e-07 6.2391e-23
3.8826e-07 6.142e-23
3.8891e-07 6.2628e-23
3.8956e-07 6.3437e-23
3.9021e-07 6.3139e-23
3.9086e-07 6.2069e-23
3.9151e-07 6.4784e-23
3.9216e-07 6.5659e-23
3.9282e-07 6.2068e-23
3.9347e-07 5.7584e-23
3.9413e-07 5.735e-23
3.9479e-07 5.8437e-23
3.9545e-07 6.4723e-23
3.9611e-07 6.4352e-23
3.9677e-07 5.8833e-23
3.9743e-07 6.0223e-23
3.9809e-07 6.8135e-23
3.9876e-07 6.5642e-23
3.9942e-07 6.1428e-23
4.0009e-07 6.9078e-23
4.0076e-07 6.8592e-23
4.0143e-07 6.5637e-23
4.021e-07 6.0179e-23
4.0277e-07 5.6177e-23
4.0344e-07 5.7258e-23
4.0411e-07 6.2048e-23
4.0479e-07 6.3728e-23
4.0546e-07 6.4348e-23
4.0614e-07 5.7681e-23
4.0682e-07 5.2347e-23
4.075e-07 5.4522e-23
4.0818e-07 6.7307e-23
4.0886e-07 6.7434e-23
4.0954e-07 6.3837e-23
4.1023e-07 6.624e-23
4.1091e-07 6.4467e-23
4.116e-07 5.5958e-23
4.1228e-07 5.6519e-23
4.1297e-07 6.7804e-23
4.1366e-07 7.2065e-23
4.1435e-07 5.9338e-23
4.1504e-07 5.9474e-23
4.1574e-07 5.2443e-23
4.1643e-07 5.176e-23
4.1712e-07 5.4717e-23
4.1782e-07 5.731e-23
4.1852e-07 5.9051e-23
4.1922e-07 5.9229e-23
4.1992e-07 6.2057e-23
4.2062e-07 6.2231e-23
4.2132e-07 6.0723e-23
4.2202e-07 6.3301e-23
4.2273e-07 6.1245e-23
4.2343e-07 6.2488e-23
4.2414e-07 6.5478e-23
4.2485e-07 6.2731e-23
4.2556e-07 5.3285e-23
4.2627e-07 4.7257e-23
4.2698e-07 5.3062e-23
4.2769e-07 6.1755e-23
4.2841e-07 5.9279e-23
4.2912e-07 5.0148e-23
4.2984e-07 4.7063e-23
4.3055e-07 5.94e-23
4.3127e-07 6.03e-23
4.3199e-07 5.1783e-23
4.3271e-07 4.8068e-23
4.3344e-07 5.6254e-23
4.3416e-07 5.8183e-23
4.3488e-07 6.7336e-23
4.3561e-07 6.4182e-23
4.3634e-07 5.6521e-23
4.3707e-07 4.7528e-23
4.3779e-07 4.1972e-23
4.3853e-07 5.3221e-23
4.3926e-07 6.8609e-23
4.3999e-07 5.9413e-23
4.4073e-07 4.6274e-23
4.4146e-07 4.0833e-23
4.422e-07 4.0568e-23
4.4294e-07 4.4832e-23
4.4368e-07 4.7789e-23
4.4442e-07 5.8957e-23
4.4516e-07 6.1638e-23
4.459e-07 5.0754e-23
4.4664e-07 4.3945e-23
4.4739e-07 5.4291e-23
4.4814e-07 6.9001e-23
4.4889e-07 5.3826e-23
4.4963e-07 4.4242e-23
4.5038e-07 4.6025e-23
4.5114e-07 4.5434e-23
4.5189e-07 4.6618e-23
4.5264e-07 4.7549e-23
4.534e-07 4.4996e-23
4.5416e-07 4.1006e-23
4.5491e-07 4.5646e-23
4.5567e-07 4.3587e-23
4.5643e-07 3.9205e-23
4.572e-07 4.3015e-23
4.5796e-07 5.1222e-23
4.5872e-07 4.5802e-23
4.5949e-07 4.3336e-23
4.6026e-07 4.8788e-23
4.6102e-07 4.6216e-23
4.6179e-07 4.0095e-23
4.6256e-07 4.6425e-23
4.6334e-07 5.5567e-23
4.6411e-07 4.6722e-23
4.6489e-07 4.0057e-23
4.6566e-07 3.158e-23
4.6644e-07 3.7548e-23
4.6722e-07 4.3776e-23
4.68e-07 4.1034e-23
4.6878e-07 3.5743e-23
4.6956e-07 3.2998e-23
4.7034e-07 3.4656e-23
4.7113e-07 3.2875e-23
4.7192e-07 3.4961e-23
4.727e-07 3.4787e-23
4.7349e-07 4.3857e-23
4.7428e-07 4.9285e-23
4.7507e-07 4.5865e-23
4.7587e-07 3.8443e-23
4.7666e-07 3.4467e-23
4.7746e-07 3.3426e-23
4.7825e-07 3.287e-23
4.7905e-07 3.6981e-23
4.7985e-07 4.0844e-23
4.8065e-07 3.6224e-23
4.8146e-07 3.5921e-23
4.8226e-07 3.0045e-23
4.8306e-07 2.5439e-23
4.8387e-07 2.5339e-23
4.8468e-07 2.7983e-23
4.8549e-07 2.8629e-23
4.863e-07 2.7944e-23
4.8711e-07 2.6542e-23
4.8792e-07 3.3129e-23
4.8874e-07 4.4074e-23
4.8955e-07 3.8116e-23
4.9037e-07 3.0813e-23
4.9119e-07 2.4582e-23
4.9201e-07 2.5985e-23
4.9283e-07 2.6834e-23
4.9365e-07 3.0917e-23
4.9448e-07 3.4571e-23
4.953e-07 3.2825e-23
4.9613e-07 3.3256e-23
4.9696e-07 2.8885e-23
4.9779e-07 2.2457e-23
4.9862e-07 1.9033e-23
4.9945e-07 1.6601e-23
5.0028e-07 1.6789e-23
5.0112e-07 1.9173e-23
5.0195e-07 2.2606e-23
5.0279e-07 2.7422e-23
5.0363e-07 2.4069e-23
5.0447e-07 3.1188e-23
5.0531e-07 2.8961e-23
5.0616e-07 2.375e-23
5.07e-07 2.1466e-23
5.0785e-07 2.0616e-23
5.087e-07 2.4209e-23
5.0954e-07 2.7387e-23
5.104e-07 2.6132e-23
5.1125e-07 2.4727e-23
5.121e-07 2.4474e-23
5.1296e-07 2.2054e-23
5.1381e-07 1.8482e-23
5.1467e-07 1.6913e-23
5.1553e-07 1.5688e-23
5.1639e-07 1.4776e-23
5.1725e-07 1.3736e-23
5.1811e-07 1.7462e-23
5.1898e-07 1.9368e-23
5.1984e-07 1.9224e-23
5.2071e-07 1.6846e-23
5.2158e-07 1.4984e-23
5.2245e-07 1.5087e-23
5.2332e-07 1.5216e-23
5.242e-07 1.7007e-23
5.2507e-07 2.2811e-23
5.2595e-07 2.2577e-23
5.2683e-07 1.9902e-23
5.2771e-07 1.8234e-23
5.2859e-07 1.6602e-23
5.2947e-07 1.5033e-23
5.3035e-07 1.5986e-23
5.3124e-07 1.5842e-23
5.3213e-07 1.6527e-23
5.3301e-07 1.56e-23
5.339e-07 1.3253e-23
5.3479e-07 1.0927e-23
5.3569e-07 8.8876e-24
5.3658e-07 9.0556e-24
5.3748e-07 9.2052e-24
5.3837e-07 1.2446e-23
5.3927e-07 1.2531e-23
5.4017e-07 9.4012e-24
5.4107e-07 9.8644e-24
5.4198e-07 1.3866e-23
5.4288e-07 1.5294e-23
5.4379e-07 1.3962e-23
5.447e-07 1.4107e-23
5.4561e-07 1.3916e-23
5.4652e-07 1.1297e-23
5.4743e-07 1.3326e-23
5.4834e-07 1.3514e-23
5.4926e-07 1.3434e-23
5.5017e-07 1.1106e-23
5.5109e-07 9.628e-24
5.5201e-07 9.8237e-24
5.5293e-07 1.1431e-23
5.5386e-07 1.0331e-23
5.5478e-07 8.3884e-24
5.5571e-07 6.7286e-24
5.5663e-07 6.6839e-24
5.5756e-07 6.7033e-24
5.5849e-07 6.4202e-24
5.5943e-07 5.4051e-24
5.6036e-07 6.1183e-24
5.613e-07 7.0324e-24
5.6223e-07 7.7977e-24
5.6317e-07 1.0197e-23
5.6411e-07 1.2114e-23
5.6505e-07 1.0971e-23
5.66e-07 7.2644e-24
5.6694e-07 6.268e-24
5.6789e-07 8.2135e-24
5.6883e-07 7.9058e-24
5.6978e-07 8.2326e-24
5.7074e-07 1.045e-23
5.7169e-07 1.0134e-23
5.7264e-07 8.4129e-24
5.736e-07 6.478e-24
5.7456e-07 5.1497e-24
5.7551e-07 4.3083e-24
5.7647e-07 3.4295e-24
5.7744e-07 3.6916e-24
5.784e-07 5.004e-24
5.7937e-07 5.9389e-24
5.8033e-07 5.3841e-24
5.813e-07 4.0245e-24
5.8227e-07 3.5845e-24
5.8324e-07 3.8288e-24
5.8422e-07 4.6676e-24
5.8519e-07 6.0874e-24
5.8617e-07 5.7234e-24
5.8715e-07 5.0342e-24
5.8813e-07 4.2801e-24
5.8911e-07 4.8646e-24
5.9009e-07 6.1634e-24
5.9108e-07 6.4839e-24
5.9206e-07 7.8336e-24
5.9305e-07 7.3463e-24
5.9404e-07 4.7991e-24
5.9503e-07 3.3898e-24
5.9603e-07 3.0648e-24
5.9702e-07 3.3133e-24
5.9802e-07 3.5131e-24
5.9902e-07 4.1039e-24
6.0002e-07 4.7912e-24
6.0102e-07 4.701e-24
6.0202e-07 3.9829e-24
6.0303e-07 2.6167e-24
6.0403e-07 1.744e-24
6.0504e-07 1.8347e-24
6.0605e-07 1.8454e-24
6.0706e-07 1.8917e-24
6.0808e-07 2.0683e-24
6.0909e-07 1.9865e-24
6.1011e-07 2.0524e-24
6.1113e-07 3.1483e-24
6.1215e-07 4.9187e-24
6.1317e-07 4.2642e-24
6.1419e-07 3.385e-24
6.1522e-07 3.0426e-24
6.1624e-07 3.8864e-24
6.1727e-07 3.8393e-24
6.183e-07 2.7272e-24
6.1933e-07 2.5217e-24
6.2037e-07 3.2577e-24
6.214e-07 2.6535e-24
6.2244e-07 2.1883e-24
6.2348e-07 2.3702e-24
6.2452e-07 2.2604e-24
6.2556e-07 2.0809e-24
6.2661e-07 1.774e-24
6.2765e-07 1.4799e-24
6.287e-07 1.3633e-24
6.2975e-07 1.1589e-24
6.308e-07 1.1992e-24
6.3185e-07 1.4042e-24
6.3291e-07 1.3014e-24
6.3397e-07 1.4846e-24
6.3502e-07 1.3712e-24
6.3608e-07 1.4988e-24
6.3715e-07 1.5469e-24
6.3821e-07 1.4957e-24
6.3927e-07 1.4414e-24
6.4034e-07 1.5886e-24
6.4141e-07 1.7519e-24
6.4248e-07 2.1902e-24
6.4355e-07 1.9479e-24
6.4463e-07 1.5662e-24
6.457e-07 1.9195e-24
6.4678e-07 2.6657e-24
6.4786e-07 2.2522e-24
6.4894e-07 1.2921e-24
6.5003e-07 1.3134e-24
6.5111e-07 1.4225e-24
6.522e-07 1.1971e-24
6.5329e-07 9.9655e-25
6.5438e-07 9.6047e-25
6.5547e-07 1.0085e-24
6.5656e-07 8.6065e-25
6.5766e-07 7.0903e-25
6.5876e-07 7.1554e-25
6.5986e-07 6.9243e-25
6.6096e-07 5.29e-25
6.6206e-07 4.1859e-25
6.6317e-07 3.9429e-25
6.6427e-07 4.5257e-25
6.6538e-07 6.2659e-25
6.6649e-07 4.5674e-25
6.676e-07 -0
6.6872e-07 -0
6.6983e-07 -0
6.7095e-07 -0
6.7207e-07 -0
6.7319e-07 -0
6.7432e-07 -0
6.7544e-07 -0
6.7657e-07 -0
6.777e-07 -0
6.7883e-07 -0
6.7996e-07 -0
6.811e-07 -0
6.8224e-07 -0
6.8338e-07 -0
6.8452e-07 -0
6.8566e-07 -0
6.868e-07 -0
6.8795e-07 -0
6.891e-07 -0
6.9025e-07 -0
6.914e-07 -0
6.9255e-07 -0
6.9371e-07 -0
6.9487e-07 -0
6.9603e-07 -0
6.9719e-07 -0
6.9835e-07 -0
6.9952e-07 -0
7.0069e-07 -0
7.0186e-07 -0
7.0303e-07 -0
7.042e-07 -0
7.0538e-07 -0
7.0655e-07 -0
7.0773e-07 -0
7.0891e-07 -0
7.101e-07 -0
7.1128e-07 -0
7.1247e-07 -0
7.1366e-07 -0
7.1485e-07 -0
7.1604e-07 -0
7.1724e-07 -0
7.1844e-07 -0
7.1964e-07 -0
7.2084e-07 -0
7.2204e-07 -0
7.2324e-07 -0
7.2445e-07 -0
7.2566e-07 -0
7.2687e-07 -0
7.2809e-07 -0
7.293e-07 -0
7.3052e-07 -0
7.3174e-07 -0
7.3296e-07 -0
7.3418e-07 -0
7.3541e-07 -0
7.3664e-07 -0
7.3787e-07 -0
7.391e-07 -0
7.4033e-07 -0
7.4157e-07 -0
7.428e-07 -0
7.4404e-07 -0
7.4529e-07 -0
7.4653e-07 -0
7.4778e-07 -0
7.4902e-07 -0
7.5027e-07 -0
7.5153e-07 -0
7.5278e-07 -0
7.5404e-07 -0
7.553e-07 -0
7.5656e-07 -0
7.5782e-07 -0
7.5908e-07 -0
7.6035e-07 -0
7.6162e-07 -0
7.6289e-07 -0
7.6417e-07 -0
7.6544e-07 -0
7.6672e-07 -0
7.68e-07 -0
7.6928e-07 -0
7.7056e-07 -0
7.7185e-07 -0
7.7314e-07 -0
7.7443e-07 -0
7.7572e-07 -0
7.7702e-07 -0
7.7831e-07 -0
7.7961e-07 -0
7.8091e-07 -0
7.8222e-07 -0
7.8352e-07 -0
7.8483e-07 -0
7.8614e-07 -0
7.8745e-07 -0
7.8877e-07 -0
7.9008e-07 -0
7.914e-07 -0
7.9272e-07 -0
7.9405e-07 -0
7.9537e-07 -0
7.967e-07 -0
7.9803e-07 -0
7.9936e-07 -0
8.007e-07 -0
8.0203e-07 -0
8.0337e-07 -0
8.0471e-07 -0
8.0606e-07 -0
8.074e-07 -0
8.0875e-07 -0
8.101e-07 -0
8.1145e-07 -0
8.1281e-07 -0
8.1416e-07 -0
8.1552e-07 -0
8.1688e-07 -0
8.1825e-07 -0
8.1961e-07 -0
8.2098e-07 -0
8.2235e-07 -0
8.2372e-07 -0
8.251e-07 -0
8.2647e-07 -0
8.2785e-07 -0
8.2924e-07 -0
8.3062e-07 -0
8.3201e-07 -0
8.334e-07 -0
8.3479e-07 -0
8.3618e-07 -0
8.3758e-07 -0
8.3897e-07 -0
8.4037e-07 -0
8.4178e-07 -0
8.4318e-07 -0
8.4459e-07 -0
8.46e-07 -0
8.4741e-07 -0
8.4883e-07 -0
8.5024e-07 -0
8.5166e-07 -0
8.5308e-07 -0
8.5451e-07 -0
8.5593e-07 -0
8.5736e-07 -0
8.5879e-07 -0
8.6023e-07 -0
8.6166e-07 -0
8.631e-07 -0
8.6454e-07 -0
8.6598e-07 -0
8.6743e-07 -0
8.6888e-07 -0
8.7033e-07 -0
8.7178e-07 -0
8.7324e-07 -0
8.7469e-07 -0
8.7615e-07 -0
8.7762e-07 -0
8.7908e-07 -0
8.8055e-07 -0
8.8202e-07 -0
8.8349e-07 -0
8.8496e-07 -0
8.8644e-07 -0
8.8792e-07 -0
8.894e-07 -0
8.9089e-07 -0
8.9237e-07 -0
8.9386e-07 -0
8.9536e-07 -0
8.9685e-07 -0
8.9835e-07 -0
8.9985e-07 -0
9.0135e-07 -0
9.0285e-07 -0
9.0436e-07 -0
9.0587e-07 -0
9.0738e-07 -0
9.089e-07 -0
9.1041e-07 -0
9.1193e-07 -0
9.1346e-07 -0
9.1498e-07 -0
9.1651e-07 -0
9.1804e-07 -0
9.1957e-07 -0
9.211e-07 -0
9.2264e-07 -0
9.2418e-07 -0
9.2572e-07 -0
9.2727e-07 -0
9.2882e-07 -0
9.3037e-07 -0
9.3192e-07 -0
9.3348e-07 -0
9.3503e-07 -0
9.366e-07 -0
9.3816e-07 -0
9.3972e-07 -0
9.4129e-07 -0
9.4286e-07 -0
9.4444e-07 -0
9.4601e-07 -0
9.4759e-07 -0
9.4918e-07 -0
9.5076e-07 -0
9.5235e-07 -0
9.5394e-07 -0
9.5553e-07 -0
9.5712e-07 -0
9.5872e-07 -0
9.6032e-07 -0
9.6192e-07 -0
9.6353e-07 -0
9.6514e-07 -0
9.6675e-07 -0
9.6836e-07 -0
9.6998e-07 -0
9.716e-07 -0
9.7322e-07 -0
9.7484e-07 -0
9.7647e-07 -0
9.781e-07 -0
9.7973e-07 -0
9.8137e-07 -0
9.8301e-07 -0
9.8465e-07 -0
9.8629e-07 -0
9.8794e-07 -0
9.8959e-07 -0
9.9124e-07 -0
9.9289e-07 -0
9.9455e-07 -0
9.9621e-07 -0
9.9787e-07 -0
9.9954e-07 -0
1.0012e-06 -0
1.0029e-06 -0
1.0046e-06 -0
1.0062e-06 -0
1.0079e-06 -0
1.0096e-06 -0
1.0113e-06 -0
1.013e-06 -0
1.0147e-06 -0
1.0163e-06 -0
1.018e-06 -0
1.0197e-06 -0
1.0214e-06 -0
1.0232e-06 -0
1.0249e-06 -0
1.0266e-06 -0
1.0283e-06 -0
1.03e-06 -0