File: material/gas/smooth_input/o3_uv_vis_T1_P0.txt
2.8e-07 3.8945e-22
2.8047e-07 3.68e-22
2.8094e-07 3.578e-22
2.814e-07 3.346e-22
2.8187e-07 3.1798e-22
2.8234e-07 3.0815e-22
2.8282e-07 2.952e-22
2.8329e-07 2.9118e-22
2.8376e-07 2.7072e-22
2.8423e-07 2.5415e-22
2.8471e-07 2.4451e-22
2.8518e-07 2.2945e-22
2.8566e-07 2.199e-22
2.8614e-07 2.1218e-22
2.8661e-07 2.0047e-22
2.8709e-07 1.9206e-22
2.8757e-07 1.7865e-22
2.8805e-07 1.6568e-22
2.8853e-07 1.5799e-22
2.8901e-07 1.5e-22
2.895e-07 1.4124e-22
2.8998e-07 1.3397e-22
2.9046e-07 1.2791e-22
2.9095e-07 1.2089e-22
2.9143e-07 1.1177e-22
2.9192e-07 1.0376e-22
2.9241e-07 9.8892e-23
2.929e-07 9.437e-23
2.9339e-07 8.712e-23
2.9388e-07 8.1072e-23
2.9437e-07 7.7468e-23
2.9486e-07 7.2975e-23
2.9535e-07 6.7136e-23
2.9584e-07 6.2511e-23
2.9634e-07 5.8204e-23
2.9683e-07 5.5471e-23
2.9733e-07 5.1347e-23
2.9782e-07 4.7391e-23
2.9832e-07 4.45e-23
2.9882e-07 4.2281e-23
2.9932e-07 3.8932e-23
2.9982e-07 3.5943e-23
3.0032e-07 3.4113e-23
3.0082e-07 3.1801e-23
3.0132e-07 2.8996e-23
3.0182e-07 2.7505e-23
3.0233e-07 2.6058e-23
3.0283e-07 2.3733e-23
3.0334e-07 2.1861e-23
3.0384e-07 2.1026e-23
3.0435e-07 1.9937e-23
3.0486e-07 1.7975e-23
3.0537e-07 1.6307e-23
3.0588e-07 1.5691e-23
3.0639e-07 1.5128e-23
3.069e-07 1.3753e-23
3.0741e-07 1.2185e-23
3.0792e-07 1.165e-23
3.0844e-07 1.1208e-23
3.0895e-07 1.0646e-23
3.0947e-07 9.3899e-24
3.0998e-07 8.4883e-24
3.105e-07 8.2288e-24
3.1102e-07 7.7547e-24
3.1154e-07 7.4558e-24
3.1206e-07 6.516e-24
3.1258e-07 5.8478e-24
3.131e-07 5.5886e-24
3.1362e-07 5.7583e-24
3.1415e-07 4.9931e-24
3.1467e-07 4.1548e-24
3.152e-07 4.1292e-24
3.1572e-07 4.2219e-24
3.1625e-07 3.4982e-24
3.1678e-07 3.103e-24
3.1731e-07 3.254e-24
3.1784e-07 3.2107e-24
3.1837e-07 2.5157e-24
3.189e-07 2.0275e-24
3.1943e-07 2.2964e-24
3.1996e-07 2.5387e-24
3.205e-07 2.0063e-24
3.2103e-07 1.3877e-24
3.2157e-07 1.3221e-24
3.2211e-07 1.8242e-24
3.2264e-07 1.8595e-24
3.2318e-07 1.2993e-24
3.2372e-07 7.7123e-25
3.2426e-07 8.361e-25
3.248e-07 1.258e-24
3.2535e-07 1.2324e-24
3.2589e-07 8.8352e-25
3.2643e-07 5.1708e-25
3.2698e-07 5.1963e-25
3.2752e-07 7.2709e-25
3.2807e-07 9.8305e-25
3.2862e-07 5.8786e-25
3.2917e-07 2.9896e-25
3.2972e-07 2.5284e-25
3.3027e-07 4.3361e-25
3.3082e-07 5.552e-25
3.3137e-07 5.5665e-25
3.3192e-07 2.8506e-25
3.3248e-07 1.6039e-25
3.3303e-07 1.8723e-25
3.3359e-07 3.4566e-25
3.3414e-07 3.471e-25
3.347e-07 1.7946e-25
3.3526e-07 9.8618e-26
3.3582e-07 7.6051e-26
3.3638e-07 1.305e-25
3.3694e-07 2.0507e-25
3.375e-07 2.6592e-25
3.3807e-07 1.3657e-25
3.3863e-07 6.5776e-26
3.392e-07 5.2106e-26
3.3976e-07 7.7262e-26
3.4033e-07 1.3339e-25
3.409e-07 7.6931e-26
3.4147e-07 3.6509e-26
3.4204e-07 2.4329e-26
3.4261e-07 2.0558e-26
3.4318e-07 3.5349e-26
3.4375e-07 7.2871e-26
3.4433e-07 9.7221e-26
3.449e-07 4.7523e-26
3.4548e-07 2.4811e-26
3.4605e-07 1.6242e-26
3.4663e-07 1.3597e-26
3.4721e-07 2.9546e-26
3.4779e-07 2.4132e-26
3.4837e-07 1.1071e-26
3.4895e-07 6.5987e-27
3.4953e-07 6.4338e-27
3.5012e-07 6.1402e-27
3.507e-07 7.4418e-27
3.5129e-07 2.3533e-26
3.5187e-07 2.5593e-26
3.5246e-07 1.2356e-26
3.5305e-07 6.4023e-27
3.5364e-07 3.1989e-27
3.5423e-07 1.8216e-27
3.5482e-07 3.0002e-27
3.5541e-07 3.1365e-27
3.5601e-07 1.3933e-27
3.566e-07 1.273e-27
3.572e-07 1.335e-27
3.5779e-07 8.3494e-28
3.5839e-07 4.461e-28
3.5899e-07 1.4309e-27
3.5959e-07 4.8047e-27
3.6019e-07 3.7654e-27
3.6079e-07 1.9125e-27
3.6139e-07 9.2214e-28
3.6199e-07 5.1696e-28
3.626e-07 3.8148e-28
3.632e-07 3.0171e-28
3.6381e-07 3.1857e-28
3.6442e-07 2.6379e-28
3.6502e-07 4.1118e-28
3.6563e-07 2.7903e-28
3.6624e-07 1.5505e-28
3.6686e-07 9.7896e-29
3.6747e-07 6.1483e-29
3.6808e-07 8.0073e-29
3.687e-07 1.241e-28
3.6931e-07 9.5972e-29
3.6993e-07 5.7388e-29
3.7054e-07 2.6601e-29
3.7116e-07 2.0322e-29
3.7178e-07 2.1716e-29
3.724e-07 2.472e-29
3.7302e-07 2.9782e-29
3.7365e-07 7.6224e-29
3.7427e-07 1.0117e-28
3.749e-07 7.0767e-28
3.7552e-07 9.4775e-27
3.7615e-07 4.0069e-27
3.7678e-07 1.9018e-27
3.7741e-07 1.2008e-27
3.7804e-07 3.3882e-28
3.7867e-07 1.1558e-28
3.793e-07 7.3438e-29
3.7993e-07 8.3669e-29
3.8057e-07 9.0262e-29
3.812e-07 9.7824e-29
3.8184e-07 1.0151e-28
3.8247e-07 1.0444e-28
3.8311e-07 1.0404e-28
3.8375e-07 9.9274e-29
3.8439e-07 8.9419e-29
3.8503e-07 8.0973e-29
3.8568e-07 7.4951e-29
3.8632e-07 7.9194e-29
3.8697e-07 1.5905e-28
3.8761e-07 4.8625e-28
3.8826e-07 6.1874e-28
3.8891e-07 7.5662e-28
3.8956e-07 1.279e-27
3.9021e-07 1.2985e-27
3.9086e-07 9.566e-28
3.9151e-07 1.0171e-27
3.9216e-07 1.1177e-27
3.9282e-07 7.25e-28
3.9347e-07 5.4654e-28
3.9413e-07 6.4959e-28
3.9479e-07 6.6725e-28
3.9545e-07 6.0398e-28
3.9611e-07 4.9411e-28
3.9677e-07 5.0037e-28
3.9743e-07 5.1326e-28
3.9809e-07 3.6595e-28
3.9876e-07 3.8691e-28
3.9942e-07 4.6817e-28
4.0009e-07 4.0348e-28
4.0076e-07 4.7961e-28
4.0143e-07 5.1431e-28
4.021e-07 5.9638e-28
4.0277e-07 6.161e-28
4.0344e-07 5.7642e-28
4.0411e-07 5.7385e-28
4.0479e-07 5.6915e-28
4.0546e-07 5.9934e-28
4.0614e-07 6.9935e-28
4.0682e-07 8.7857e-28
4.075e-07 1.1441e-27
4.0818e-07 1.3717e-27
4.0886e-07 1.529e-27
4.0954e-07 1.6585e-27
4.1023e-07 1.6917e-27
4.1091e-07 1.6986e-27
4.116e-07 1.6728e-27
4.1228e-07 1.5697e-27
4.1297e-07 1.4124e-27
4.1366e-07 1.3894e-27
4.1435e-07 1.561e-27
4.1504e-07 1.8228e-27
4.1574e-07 2.1333e-27
4.1643e-07 2.3943e-27
4.1712e-07 2.601e-27
4.1782e-07 2.7226e-27
4.1852e-07 2.6747e-27
4.1922e-07 2.5908e-27
4.1992e-07 2.6332e-27
4.2062e-07 2.7772e-27
4.2132e-07 3.1486e-27
4.2202e-07 3.6648e-27
4.2273e-07 4.2902e-27
4.2343e-07 4.9403e-27
4.2414e-07 5.5669e-27
4.2485e-07 6.121e-27
4.2556e-07 6.4418e-27
4.2627e-07 6.3941e-27
4.2698e-07 6.2238e-27
4.2769e-07 5.8889e-27
4.2841e-07 5.5637e-27
4.2912e-07 5.3926e-27
4.2984e-07 5.4406e-27
4.3055e-07 5.8172e-27
4.3127e-07 6.4851e-27
4.3199e-07 7.2271e-27
4.3271e-07 7.8017e-27
4.3344e-07 8.1161e-27
4.3416e-07 8.1194e-27
4.3488e-07 7.9798e-27
4.3561e-07 7.9649e-27
4.3634e-07 8.1241e-27
4.3707e-07 8.6376e-27
4.3779e-07 9.5204e-27
4.3853e-07 1.0837e-26
4.3926e-07 1.2374e-26
4.3999e-07 1.384e-26
4.4073e-07 1.5298e-26
4.4146e-07 1.6727e-26
4.422e-07 1.7887e-26
4.4294e-07 1.8766e-26
4.4368e-07 1.8192e-26
4.4442e-07 1.7614e-26
4.4516e-07 1.6631e-26
4.459e-07 1.5503e-26
4.4664e-07 1.4758e-26
4.4739e-07 1.4896e-26
4.4814e-07 1.5805e-26
4.4889e-07 1.7138e-26
4.4963e-07 1.854e-26
4.5038e-07 1.9713e-26
4.5114e-07 2.0191e-26
4.5189e-07 2.0101e-26
4.5264e-07 2.0111e-26
4.534e-07 1.986e-26
4.5416e-07 2.0074e-26
4.5491e-07 2.1959e-26
4.5567e-07 2.3121e-26
4.5643e-07 2.4377e-26
4.572e-07 2.7135e-26
4.5796e-07 3.0337e-26
4.5872e-07 3.3462e-26
4.5949e-07 3.6532e-26
4.6026e-07 3.9393e-26
4.6102e-07 4.1327e-26
4.6179e-07 4.194e-26
4.6256e-07 4.1384e-26
4.6334e-07 3.9791e-26
4.6411e-07 3.7395e-26
4.6489e-07 3.5253e-26
4.6566e-07 3.3887e-26
4.6644e-07 3.4126e-26
4.6722e-07 3.576e-26
4.68e-07 3.792e-26
4.6878e-07 4.051e-26
4.6956e-07 4.2785e-26
4.7034e-07 4.3629e-26
4.7113e-07 4.3773e-26
4.7192e-07 4.345e-26
4.727e-07 4.3511e-26
4.7349e-07 4.4051e-26
4.7428e-07 4.5348e-26
4.7507e-07 4.7743e-26
4.7587e-07 5.1283e-26
4.7666e-07 5.5762e-26
4.7746e-07 6.0883e-26
4.7825e-07 6.6425e-26
4.7905e-07 7.2259e-26
4.7985e-07 7.8026e-26
4.8065e-07 8.3064e-26
4.8146e-07 8.6822e-26
4.8226e-07 8.8338e-26
4.8306e-07 8.7843e-26
4.8387e-07 8.594e-26
4.8468e-07 8.367e-26
4.8549e-07 8.071e-26
4.863e-07 7.7601e-26
4.8711e-07 7.6654e-26
4.8792e-07 7.7291e-26
4.8874e-07 7.9415e-26
4.8955e-07 8.2169e-26
4.9037e-07 8.4682e-26
4.9119e-07 8.6781e-26
4.9201e-07 8.8051e-26
4.9283e-07 8.873e-26
4.9365e-07 8.9179e-26
4.9448e-07 9.0005e-26
4.953e-07 9.1433e-26
4.9613e-07 9.4189e-26
4.9696e-07 9.8294e-26
4.9779e-07 1.038e-25
4.9862e-07 1.1085e-25
4.9945e-07 1.1893e-25
5.0028e-07 1.2801e-25
5.0112e-07 1.3786e-25
5.0195e-07 1.486e-25
5.0279e-07 1.5789e-25
5.0363e-07 1.7022e-25
5.0447e-07 1.7474e-25
5.0531e-07 1.7409e-25
5.0616e-07 1.7557e-25
5.07e-07 1.7483e-25
5.0785e-07 1.7185e-25
5.087e-07 1.6736e-25
5.0954e-07 1.642e-25
5.104e-07 1.6096e-25
5.1125e-07 1.5973e-25
5.121e-07 1.6038e-25
5.1296e-07 1.6228e-25
5.1381e-07 1.6489e-25
5.1467e-07 1.6809e-25
5.1553e-07 1.7125e-25
5.1639e-07 1.7404e-25
5.1725e-07 1.7659e-25
5.1811e-07 1.7927e-25
5.1898e-07 1.8213e-25
5.1984e-07 1.8537e-25
5.2071e-07 1.8931e-25
5.2158e-07 1.9431e-25
5.2245e-07 2.0055e-25
5.2332e-07 2.0837e-25
5.242e-07 2.18e-25
5.2507e-07 2.2648e-25
5.2595e-07 2.3429e-25
5.2683e-07 2.4447e-25
5.2771e-07 2.5329e-25
5.2859e-07 2.6209e-25
5.2947e-07 2.7043e-25
5.3035e-07 2.7798e-25
5.3124e-07 2.8367e-25
5.3213e-07 2.8817e-25
5.3301e-07 2.9107e-25
5.339e-07 2.9231e-25
5.3479e-07 2.9256e-25
5.3569e-07 2.9209e-25
5.3658e-07 2.918e-25
5.3748e-07 2.9223e-25
5.3837e-07 2.9451e-25
5.3927e-07 2.9854e-25
5.4017e-07 3.051e-25
5.4107e-07 3.1475e-25
5.4198e-07 3.2004e-25
5.4288e-07 3.235e-25
5.4379e-07 3.3067e-25
5.447e-07 3.3374e-25
5.4561e-07 3.387e-25
5.4652e-07 3.4348e-25
5.4743e-07 3.4258e-25
5.4834e-07 3.4411e-25
5.4926e-07 3.4627e-25
5.5017e-07 3.4855e-25
5.5109e-07 3.5031e-25
5.5201e-07 3.5227e-25
5.5293e-07 3.5536e-25
5.5386e-07 3.589e-25
5.5478e-07 3.6329e-25
5.5571e-07 3.685e-25
5.5663e-07 3.7481e-25
5.5756e-07 3.8253e-25
5.5849e-07 3.9126e-25
5.5943e-07 4.0076e-25
5.6036e-07 4.1088e-25
5.613e-07 4.2066e-25
5.6223e-07 4.301e-25
5.6317e-07 4.384e-25
5.6411e-07 4.4587e-25
5.6505e-07 4.5265e-25
5.66e-07 4.5895e-25
5.6694e-07 4.6638e-25
5.6789e-07 4.7695e-25
5.6883e-07 4.9109e-25
5.6978e-07 4.9648e-25
5.7074e-07 4.9433e-25
5.7169e-07 5.0104e-25
5.7264e-07 5.0718e-25
5.736e-07 5.0811e-25
5.7456e-07 5.1039e-25
5.7551e-07 5.0753e-25
5.7647e-07 5.0336e-25
5.7744e-07 5.0007e-25
5.784e-07 4.9274e-25
5.7937e-07 4.876e-25
5.8033e-07 4.8156e-25
5.813e-07 4.7684e-25
5.8227e-07 4.7284e-25
5.8324e-07 4.6979e-25
5.8422e-07 4.6761e-25
5.8519e-07 4.6573e-25
5.8617e-07 4.6809e-25
5.8715e-07 4.7412e-25
5.8813e-07 4.8884e-25
5.8911e-07 5.0338e-25
5.9009e-07 5.0445e-25
5.9108e-07 5.0305e-25
5.9206e-07 5.1273e-25
5.9305e-07 5.0815e-25
5.9404e-07 5.2066e-25
5.9503e-07 5.361e-25
5.9603e-07 5.3533e-25
5.9702e-07 5.4556e-25
5.9802e-07 5.5014e-25
5.9902e-07 5.5465e-25
6.0002e-07 5.5527e-25
6.0102e-07 5.5357e-25
6.0202e-07 5.5169e-25
6.0303e-07 5.4834e-25
6.0403e-07 5.4268e-25
6.0504e-07 5.3703e-25
6.0605e-07 5.2996e-25
6.0706e-07 5.2167e-25
6.0808e-07 5.1283e-25
6.0909e-07 5.0348e-25
6.1011e-07 4.9418e-25
6.1113e-07 4.8784e-25
6.1215e-07 4.8371e-25
6.1317e-07 4.7844e-25
6.1419e-07 4.7278e-25
6.1522e-07 4.669e-25
6.1624e-07 4.6097e-25
6.1727e-07 4.5509e-25
6.183e-07 4.4955e-25
6.1933e-07 4.4429e-25
6.2037e-07 4.3944e-25
6.214e-07 4.346e-25
6.2244e-07 4.2999e-25
6.2348e-07 4.2548e-25
6.2452e-07 4.2138e-25
6.2556e-07 4.1838e-25
6.2661e-07 4.1777e-25
6.2765e-07 4.2278e-25
6.287e-07 4.1784e-25
6.2975e-07 4.0747e-25
6.308e-07 3.9654e-25
6.3185e-07 3.9465e-25
6.3291e-07 3.8614e-25
6.3397e-07 3.7791e-25
6.3502e-07 3.7121e-25
6.3608e-07 3.6408e-25
6.3715e-07 3.5749e-25
6.3821e-07 3.4984e-25
6.3927e-07 3.4368e-25
6.4034e-07 3.3658e-25
6.4141e-07 3.298e-25
6.4248e-07 3.2346e-25
6.4355e-07 3.1935e-25
6.4463e-07 3.1687e-25
6.457e-07 3.1715e-25
6.4678e-07 3.21e-25
6.4786e-07 3.2166e-25
6.4894e-07 3.1366e-25
6.5003e-07 2.9989e-25
6.5111e-07 2.9641e-25
6.522e-07 2.9685e-25
6.5329e-07 2.8358e-25
6.5438e-07 2.8119e-25
6.5547e-07 2.7962e-25
6.5656e-07 2.7273e-25
6.5766e-07 2.6518e-25
6.5876e-07 2.576e-25
6.5986e-07 2.5064e-25
6.6096e-07 2.4345e-25
6.6206e-07 2.3708e-25
6.6317e-07 2.3255e-25
6.6427e-07 2.2769e-25
6.6538e-07 2.2203e-25
6.6649e-07 2.1639e-25
6.676e-07 2.1052e-25
6.6872e-07 2.0523e-25
6.6983e-07 1.9992e-25
6.7095e-07 1.9494e-25
6.7207e-07 1.9043e-25
6.7319e-07 1.8612e-25
6.7432e-07 1.8213e-25
6.7544e-07 1.7834e-25
6.7657e-07 1.749e-25
6.777e-07 1.7132e-25
6.7883e-07 1.6838e-25
6.7996e-07 1.6566e-25
6.811e-07 1.6343e-25
6.8224e-07 1.6218e-25
6.8338e-07 1.6032e-25
6.8452e-07 1.5911e-25
6.8566e-07 1.5655e-25
6.868e-07 1.6643e-25
6.8795e-07 1.706e-25
6.891e-07 1.6266e-25
6.9025e-07 1.5794e-25
6.914e-07 1.5087e-25
6.9255e-07 1.5078e-25
6.9371e-07 1.5257e-25
6.9487e-07 1.4824e-25
6.9603e-07 1.4184e-25
6.9719e-07 1.3178e-25
6.9835e-07 1.3211e-25
6.9952e-07 1.3462e-25
7.0069e-07 1.3276e-25
7.0186e-07 1.3025e-25
7.0303e-07 1.2535e-25
7.042e-07 1.2162e-25
7.0538e-07 1.2209e-25
7.0655e-07 1.1967e-25
7.0773e-07 1.1736e-25
7.0891e-07 1.1433e-25
7.101e-07 1.1457e-25
7.1128e-07 1.1132e-25
7.1247e-07 1.1047e-25
7.1366e-07 1.1096e-25
7.1485e-07 1.1354e-25
7.1604e-07 1.1765e-25
7.1724e-07 1.3101e-25
7.1844e-07 1.2952e-25
7.1964e-07 1.2885e-25
7.2084e-07 1.1923e-25
7.2204e-07 1.0667e-25
7.2324e-07 1.1002e-25
7.2445e-07 1.1336e-25
7.2566e-07 1.1169e-25
7.2687e-07 1.0844e-25
7.2809e-07 1.0684e-25
7.293e-07 1.0444e-25
7.3052e-07 1.0328e-25
7.3174e-07 9.9586e-26
7.3296e-07 9.1749e-26
7.3418e-07 8.7436e-26
7.3541e-07 8.8449e-26
7.3664e-07 8.9446e-26
7.3787e-07 8.5852e-26
7.391e-07 8.4686e-26
7.4033e-07 8.1868e-26
7.4157e-07 8.0426e-26
7.428e-07 7.9775e-26
7.4404e-07 7.8686e-26
7.4529e-07 7.8587e-26
7.4653e-07 7.8495e-26
7.4778e-07 7.8137e-26
7.4902e-07 7.6468e-26
7.5027e-07 7.4482e-26
7.5153e-07 7.157e-26
7.5278e-07 6.8755e-26
7.5404e-07 6.6538e-26
7.553e-07 6.4961e-26
7.5656e-07 6.4175e-26
7.5782e-07 6.46e-26
7.5908e-07 6.8173e-26
7.6035e-07 8.2924e-26
7.6162e-07 7.9888e-26
7.6289e-07 8.0428e-26
7.6417e-07 7.9597e-26
7.6544e-07 7.501e-26
7.6672e-07 7.0363e-26
7.68e-07 6.6328e-26
7.6928e-07 6.4098e-26
7.7056e-07 6.1778e-26
7.7185e-07 6.0847e-26
7.7314e-07 6.1191e-26
7.7443e-07 6.187e-26
7.7572e-07 6.2921e-26
7.7702e-07 6.3933e-26
7.7831e-07 6.4764e-26
7.7961e-07 6.5176e-26
7.8091e-07 6.4216e-26
7.8222e-07 6.2942e-26
7.8352e-07 6.162e-26
7.8483e-07 6.1105e-26
7.8614e-07 6.0835e-26
7.8745e-07 6.227e-26
7.8877e-07 6.2711e-26
7.9008e-07 6.2964e-26
7.914e-07 6.1135e-26
7.9272e-07 5.951e-26
7.9405e-07 2.7905e-26
7.9537e-07 -0
7.967e-07 -0
7.9803e-07 -0
7.9936e-07 -0
8.007e-07 -0
8.0203e-07 -0
8.0337e-07 -0
8.0471e-07 -0
8.0606e-07 -0
8.074e-07 -0
8.0875e-07 -0
8.101e-07 -0
8.1145e-07 -0
8.1281e-07 -0
8.1416e-07 -0
8.1552e-07 -0
8.1688e-07 -0
8.1825e-07 -0
8.1961e-07 -0
8.2098e-07 -0
8.2235e-07 -0
8.2372e-07 -0
8.251e-07 -0
8.2647e-07 -0
8.2785e-07 -0
8.2924e-07 -0
8.3062e-07 -0
8.3201e-07 -0
8.334e-07 -0
8.3479e-07 -0
8.3618e-07 -0
8.3758e-07 -0
8.3897e-07 -0
8.4037e-07 -0
8.4178e-07 -0
8.4318e-07 -0
8.4459e-07 -0
8.46e-07 -0
8.4741e-07 -0
8.4883e-07 -0
8.5024e-07 -0
8.5166e-07 -0
8.5308e-07 -0
8.5451e-07 -0
8.5593e-07 -0
8.5736e-07 -0
8.5879e-07 -0
8.6023e-07 -0
8.6166e-07 -0
8.631e-07 -0
8.6454e-07 -0
8.6598e-07 -0
8.6743e-07 -0
8.6888e-07 -0
8.7033e-07 -0
8.7178e-07 -0
8.7324e-07 -0
8.7469e-07 -0
8.7615e-07 -0
8.7762e-07 -0
8.7908e-07 -0
8.8055e-07 -0
8.8202e-07 -0
8.8349e-07 -0
8.8496e-07 -0
8.8644e-07 -0
8.8792e-07 -0
8.894e-07 -0
8.9089e-07 -0
8.9237e-07 -0
8.9386e-07 -0
8.9536e-07 -0
8.9685e-07 -0
8.9835e-07 -0
8.9985e-07 -0
9.0135e-07 -0
9.0285e-07 -0
9.0436e-07 -0
9.0587e-07 -0
9.0738e-07 -0
9.089e-07 -0
9.1041e-07 -0
9.1193e-07 -0
9.1346e-07 -0
9.1498e-07 -0
9.1651e-07 -0
9.1804e-07 -0
9.1957e-07 -0
9.211e-07 -0
9.2264e-07 -0
9.2418e-07 -0
9.2572e-07 -0
9.2727e-07 -0
9.2882e-07 -0
9.3037e-07 -0
9.3192e-07 -0
9.3348e-07 -0
9.3503e-07 -0
9.366e-07 -0
9.3816e-07 -0
9.3972e-07 -0
9.4129e-07 -0
9.4286e-07 -0
9.4444e-07 -0
9.4601e-07 -0
9.4759e-07 -0
9.4918e-07 -0
9.5076e-07 -0
9.5235e-07 -0
9.5394e-07 -0
9.5553e-07 -0
9.5712e-07 -0
9.5872e-07 -0
9.6032e-07 -0
9.6192e-07 -0
9.6353e-07 -0
9.6514e-07 -0
9.6675e-07 -0
9.6836e-07 -0
9.6998e-07 -0
9.716e-07 -0
9.7322e-07 -0
9.7484e-07 -0
9.7647e-07 -0
9.781e-07 -0
9.7973e-07 -0
9.8137e-07 -0
9.8301e-07 -0
9.8465e-07 -0
9.8629e-07 -0
9.8794e-07 -0
9.8959e-07 -0
9.9124e-07 -0
9.9289e-07 -0
9.9455e-07 -0
9.9621e-07 -0
9.9787e-07 -0
9.9954e-07 -0
1.0012e-06 -0
1.0029e-06 -0
1.0046e-06 -0
1.0062e-06 -0
1.0079e-06 -0
1.0096e-06 -0
1.0113e-06 -0
1.013e-06 -0
1.0147e-06 -0
1.0163e-06 -0
1.018e-06 -0
1.0197e-06 -0
1.0214e-06 -0
1.0232e-06 -0
1.0249e-06 -0
1.0266e-06 -0
1.0283e-06 -0
1.03e-06 -0