File: material/gas/smooth_input/o3_uv_vis_T0_P1.txt
2.8e-07 3.9348e-22
2.8047e-07 3.7196e-22
2.8094e-07 3.6108e-22
2.814e-07 3.3917e-22
2.8187e-07 3.2213e-22
2.8234e-07 3.1263e-22
2.8282e-07 2.9989e-22
2.8329e-07 2.953e-22
2.8376e-07 2.7618e-22
2.8423e-07 2.5907e-22
2.8471e-07 2.488e-22
2.8518e-07 2.3399e-22
2.8566e-07 2.2388e-22
2.8614e-07 2.1593e-22
2.8661e-07 2.043e-22
2.8709e-07 1.956e-22
2.8757e-07 1.8257e-22
2.8805e-07 1.6941e-22
2.8853e-07 1.613e-22
2.8901e-07 1.5315e-22
2.895e-07 1.443e-22
2.8998e-07 1.3684e-22
2.9046e-07 1.3062e-22
2.9095e-07 1.2357e-22
2.9143e-07 1.1452e-22
2.9192e-07 1.0639e-22
2.9241e-07 1.0125e-22
2.929e-07 9.6572e-23
2.9339e-07 8.9391e-23
2.9388e-07 8.3206e-23
2.9437e-07 7.937e-23
2.9486e-07 7.484e-23
2.9535e-07 6.9048e-23
2.9584e-07 6.4314e-23
2.9634e-07 5.9906e-23
2.9683e-07 5.7032e-23
2.9733e-07 5.2881e-23
2.9782e-07 4.8887e-23
2.9832e-07 4.5888e-23
2.9882e-07 4.3559e-23
2.9932e-07 4.0213e-23
2.9982e-07 3.7174e-23
3.0032e-07 3.5228e-23
3.0082e-07 3.2879e-23
3.0132e-07 3.0058e-23
3.0182e-07 2.8449e-23
3.0233e-07 2.6942e-23
3.0283e-07 2.4622e-23
3.0334e-07 2.27e-23
3.0384e-07 2.1757e-23
3.0435e-07 2.0639e-23
3.0486e-07 1.8699e-23
3.0537e-07 1.6999e-23
3.0588e-07 1.6296e-23
3.0639e-07 1.5675e-23
3.069e-07 1.4321e-23
3.0741e-07 1.276e-23
3.0792e-07 1.2138e-23
3.0844e-07 1.1651e-23
3.0895e-07 1.108e-23
3.0947e-07 9.8361e-24
3.0998e-07 8.9174e-24
3.105e-07 8.5929e-24
3.1102e-07 8.107e-24
3.1154e-07 7.7811e-24
3.1206e-07 6.8562e-24
3.1258e-07 6.179e-24
3.131e-07 5.883e-24
3.1362e-07 5.9921e-24
3.1415e-07 5.2732e-24
3.1467e-07 4.4576e-24
3.152e-07 4.3507e-24
3.1572e-07 4.4141e-24
3.1625e-07 3.7147e-24
3.1678e-07 3.312e-24
3.1731e-07 3.4166e-24
3.1784e-07 3.3571e-24
3.1837e-07 2.6953e-24
3.189e-07 2.2078e-24
3.1943e-07 2.4284e-24
3.1996e-07 2.6408e-24
3.205e-07 2.1405e-24
3.2103e-07 1.5372e-24
3.2157e-07 1.4452e-24
3.2211e-07 1.8974e-24
3.2264e-07 1.9339e-24
3.2318e-07 1.4112e-24
3.2372e-07 8.8933e-25
3.2426e-07 9.2411e-25
3.248e-07 1.3094e-24
3.2535e-07 1.291e-24
3.2589e-07 9.6057e-25
3.2643e-07 6.0167e-25
3.2698e-07 5.8288e-25
3.2752e-07 7.6891e-25
3.2807e-07 1.0123e-24
3.2862e-07 6.5327e-25
3.2917e-07 3.6247e-25
3.2972e-07 3.003e-25
3.3027e-07 4.6368e-25
3.3082e-07 5.8314e-25
3.3137e-07 5.8801e-25
3.3192e-07 3.2729e-25
3.3248e-07 1.9502e-25
3.3303e-07 2.1608e-25
3.3359e-07 3.6687e-25
3.3414e-07 3.7393e-25
3.347e-07 2.0897e-25
3.3526e-07 1.219e-25
3.3582e-07 9.6643e-26
3.3638e-07 1.4931e-25
3.3694e-07 2.1993e-25
3.375e-07 2.7602e-25
3.3807e-07 1.5319e-25
3.3863e-07 8.1576e-26
3.392e-07 6.838e-26
3.3976e-07 9.2981e-26
3.4033e-07 1.4334e-25
3.409e-07 8.7865e-26
3.4147e-07 4.5805e-26
3.4204e-07 3.349e-26
3.4261e-07 3.0232e-26
3.4318e-07 4.528e-26
3.4375e-07 7.834e-26
3.4433e-07 1.0017e-25
3.449e-07 5.3952e-26
3.4548e-07 3.2789e-26
3.4605e-07 2.4492e-26
3.4663e-07 1.9904e-26
3.4721e-07 3.2963e-26
3.4779e-07 2.7355e-26
3.4837e-07 1.4573e-26
3.4895e-07 1.0296e-26
3.4953e-07 1.101e-26
3.5012e-07 1.0403e-26
3.507e-07 1.0723e-26
3.5129e-07 2.4829e-26
3.5187e-07 2.7211e-26
3.5246e-07 1.5612e-26
3.5305e-07 9.7883e-27
3.5364e-07 5.8104e-27
3.5423e-07 3.7123e-27
3.5482e-07 4.6456e-27
3.5541e-07 4.7172e-27
3.5601e-07 2.9036e-27
3.566e-07 3.0572e-27
3.572e-07 3.3371e-27
3.5779e-07 2.4345e-27
3.5839e-07 1.58e-27
3.5899e-07 2.4683e-27
3.5959e-07 5.6176e-27
3.6019e-07 4.7663e-27
3.6079e-07 2.9962e-27
3.6139e-07 1.8304e-27
3.6199e-07 1.2225e-27
3.626e-07 1.0275e-27
3.632e-07 9.3647e-28
3.6381e-07 9.1592e-28
3.6442e-07 9.7348e-28
3.6502e-07 1.3024e-27
3.6563e-07 1.068e-27
3.6624e-07 7.5946e-28
3.6686e-07 7.0129e-28
3.6747e-07 7.3495e-28
3.6808e-07 6.524e-28
3.687e-07 5.8675e-28
3.6931e-07 5.9872e-28
3.6993e-07 7.0833e-28
3.7054e-07 1.1991e-27
3.7116e-07 1.2146e-27
3.7178e-07 9.3028e-28
3.724e-07 7.3641e-28
3.7302e-07 6.526e-28
3.7365e-07 6.9448e-28
3.7427e-07 6.5688e-28
3.749e-07 6.656e-28
3.7552e-07 1.1213e-27
3.7615e-07 1.0992e-27
3.7678e-07 8.9304e-28
3.7741e-07 7.8105e-28
3.7804e-07 6.9395e-28
3.7867e-07 5.966e-28
3.793e-07 5.3855e-28
3.7993e-07 5.3105e-28
3.8057e-07 5.3116e-28
3.812e-07 5.3855e-28
3.8184e-07 5.4328e-28
3.8247e-07 5.4257e-28
3.8311e-07 5.4588e-28
3.8375e-07 5.6178e-28
3.8439e-07 5.6765e-28
3.8503e-07 5.6893e-28
3.8568e-07 5.5783e-28
3.8632e-07 5.4869e-28
3.8697e-07 6.2568e-28
3.8761e-07 7.6264e-28
3.8826e-07 8.2327e-28
3.8891e-07 8.2888e-28
3.8956e-07 9.5615e-28
3.9021e-07 1.0005e-27
3.9086e-07 9.3832e-28
3.9151e-07 1.0055e-27
3.9216e-07 1.1017e-27
3.9282e-07 1.0005e-27
3.9347e-07 9.8225e-28
3.9413e-07 1.1226e-27
3.9479e-07 1.2197e-27
3.9545e-07 1.205e-27
3.9611e-07 1.1489e-27
3.9677e-07 1.1621e-27
3.9743e-07 1.1833e-27
3.9809e-07 1.0399e-27
3.9876e-07 1.0878e-27
3.9942e-07 1.2227e-27
4.0009e-07 1.1796e-27
4.0076e-07 1.3095e-27
4.0143e-07 1.3592e-27
4.021e-07 1.4709e-27
4.0277e-07 1.4997e-27
4.0344e-07 1.4477e-27
4.0411e-07 1.4439e-27
4.0479e-07 1.4391e-27
4.0546e-07 1.4771e-27
4.0614e-07 1.6041e-27
4.0682e-07 1.8197e-27
4.075e-07 2.1327e-27
4.0818e-07 2.3981e-27
4.0886e-07 2.5731e-27
4.0954e-07 2.7131e-27
4.1023e-07 2.7532e-27
4.1091e-07 2.7599e-27
4.116e-07 2.7287e-27
4.1228e-07 2.6211e-27
4.1297e-07 2.4554e-27
4.1366e-07 2.4249e-27
4.1435e-07 2.601e-27
4.1504e-07 2.8787e-27
4.1574e-07 3.2001e-27
4.1643e-07 3.472e-27
4.1712e-07 3.6875e-27
4.1782e-07 3.8178e-27
4.1852e-07 3.7755e-27
4.1922e-07 3.6879e-27
4.1992e-07 3.7301e-27
4.2062e-07 3.8746e-27
4.2132e-07 4.2424e-27
4.2202e-07 4.7617e-27
4.2273e-07 5.3799e-27
4.2343e-07 6.0268e-27
4.2414e-07 6.6463e-27
4.2485e-07 7.1907e-27
4.2556e-07 7.5034e-27
4.2627e-07 7.4554e-27
4.2698e-07 7.3005e-27
4.2769e-07 6.9839e-27
4.2841e-07 6.6599e-27
4.2912e-07 6.4779e-27
4.2984e-07 6.5165e-27
4.3055e-07 6.8913e-27
4.3127e-07 7.5409e-27
4.3199e-07 8.2599e-27
4.3271e-07 8.8238e-27
4.3344e-07 9.1455e-27
4.3416e-07 9.1585e-27
4.3488e-07 9.0293e-27
4.3561e-07 9.0087e-27
4.3634e-07 9.1508e-27
4.3707e-07 9.6338e-27
4.3779e-07 1.0479e-26
4.3853e-07 1.1762e-26
4.3926e-07 1.3264e-26
4.3999e-07 1.47e-26
4.4073e-07 1.6148e-26
4.4146e-07 1.7551e-26
4.422e-07 1.8678e-26
4.4294e-07 1.9462e-26
4.4368e-07 1.8903e-26
4.4442e-07 1.8258e-26
4.4516e-07 1.7284e-26
4.459e-07 1.6277e-26
4.4664e-07 1.5632e-26
4.4739e-07 1.5774e-26
4.4814e-07 1.659e-26
4.4889e-07 1.7873e-26
4.4963e-07 1.9232e-26
4.5038e-07 2.0367e-26
4.5114e-07 2.0823e-26
4.5189e-07 2.0749e-26
4.5264e-07 2.0599e-26
4.534e-07 2.0325e-26
4.5416e-07 2.046e-26
4.5491e-07 2.1761e-26
4.5567e-07 2.314e-26
4.5643e-07 2.4911e-26
4.572e-07 2.773e-26
4.5796e-07 3.0881e-26
4.5872e-07 3.3966e-26
4.5949e-07 3.7031e-26
4.6026e-07 3.9924e-26
4.6102e-07 4.1882e-26
4.6179e-07 4.2549e-26
4.6256e-07 4.2096e-26
4.6334e-07 4.0599e-26
4.6411e-07 3.8339e-26
4.6489e-07 3.6266e-26
4.6566e-07 3.4893e-26
4.6644e-07 3.5e-26
4.6722e-07 3.6411e-26
4.68e-07 3.8435e-26
4.6878e-07 4.0859e-26
4.6956e-07 4.2976e-26
4.7034e-07 4.3858e-26
4.7113e-07 4.4044e-26
4.7192e-07 4.3815e-26
4.727e-07 4.3828e-26
4.7349e-07 4.4305e-26
4.7428e-07 4.5583e-26
4.7507e-07 4.788e-26
4.7587e-07 5.1288e-26
4.7666e-07 5.5699e-26
4.7746e-07 6.0734e-26
4.7825e-07 6.6176e-26
4.7905e-07 7.1977e-26
4.7985e-07 7.7732e-26
4.8065e-07 8.2735e-26
4.8146e-07 8.656e-26
4.8226e-07 8.8315e-26
4.8306e-07 8.8046e-26
4.8387e-07 8.6326e-26
4.8468e-07 8.4107e-26
4.8549e-07 8.1282e-26
4.863e-07 7.8313e-26
4.8711e-07 7.72e-26
4.8792e-07 7.7643e-26
4.8874e-07 7.9648e-26
4.8955e-07 8.2279e-26
4.9037e-07 8.4773e-26
4.9119e-07 8.6855e-26
4.9201e-07 8.8231e-26
4.9283e-07 8.8929e-26
4.9365e-07 8.9442e-26
4.9448e-07 9.0233e-26
4.953e-07 9.1608e-26
4.9613e-07 9.4233e-26
4.9696e-07 9.813e-26
4.9779e-07 1.0344e-25
4.9862e-07 1.1021e-25
4.9945e-07 1.1801e-25
5.0028e-07 1.268e-25
5.0112e-07 1.3636e-25
5.0195e-07 1.4664e-25
5.0279e-07 1.558e-25
5.0363e-07 1.6739e-25
5.0447e-07 1.7207e-25
5.0531e-07 1.7215e-25
5.0616e-07 1.7373e-25
5.07e-07 1.7314e-25
5.0785e-07 1.7034e-25
5.087e-07 1.6621e-25
5.0954e-07 1.6318e-25
5.104e-07 1.6017e-25
5.1125e-07 1.5905e-25
5.121e-07 1.5966e-25
5.1296e-07 1.6158e-25
5.1381e-07 1.6426e-25
5.1467e-07 1.6746e-25
5.1553e-07 1.7064e-25
5.1639e-07 1.7351e-25
5.1725e-07 1.7612e-25
5.1811e-07 1.7881e-25
5.1898e-07 1.8165e-25
5.1984e-07 1.8487e-25
5.2071e-07 1.8877e-25
5.2158e-07 1.9368e-25
5.2245e-07 1.9975e-25
5.2332e-07 2.0728e-25
5.242e-07 2.1644e-25
5.2507e-07 2.2492e-25
5.2595e-07 2.3291e-25
5.2683e-07 2.4281e-25
5.2771e-07 2.5166e-25
5.2859e-07 2.6044e-25
5.2947e-07 2.6879e-25
5.3035e-07 2.7636e-25
5.3124e-07 2.8227e-25
5.3213e-07 2.8693e-25
5.3301e-07 2.8999e-25
5.339e-07 2.9142e-25
5.3479e-07 2.9169e-25
5.3569e-07 2.9123e-25
5.3658e-07 2.9091e-25
5.3748e-07 2.9122e-25
5.3837e-07 2.9321e-25
5.3927e-07 2.9682e-25
5.4017e-07 3.0274e-25
5.4107e-07 3.1148e-25
5.4198e-07 3.1666e-25
5.4288e-07 3.2051e-25
5.4379e-07 3.273e-25
5.447e-07 3.3069e-25
5.4561e-07 3.3562e-25
5.4652e-07 3.4017e-25
5.4743e-07 3.401e-25
5.4834e-07 3.4197e-25
5.4926e-07 3.4435e-25
5.5017e-07 3.4674e-25
5.5109e-07 3.488e-25
5.5201e-07 3.5105e-25
5.5293e-07 3.5425e-25
5.5386e-07 3.5791e-25
5.5478e-07 3.6231e-25
5.5571e-07 3.6746e-25
5.5663e-07 3.7371e-25
5.5756e-07 3.8123e-25
5.5849e-07 3.8983e-25
5.5943e-07 3.9915e-25
5.6036e-07 4.0908e-25
5.613e-07 4.188e-25
5.6223e-07 4.282e-25
5.6317e-07 4.3661e-25
5.6411e-07 4.4414e-25
5.6505e-07 4.5094e-25
5.66e-07 4.572e-25
5.6694e-07 4.6419e-25
5.6789e-07 4.7372e-25
5.6883e-07 4.8624e-25
5.6978e-07 4.9167e-25
5.7074e-07 4.9085e-25
5.7169e-07 4.9711e-25
5.7264e-07 5.0283e-25
5.736e-07 5.0397e-25
5.7456e-07 5.0605e-25
5.7551e-07 5.0335e-25
5.7647e-07 4.9948e-25
5.7744e-07 4.9625e-25
5.784e-07 4.8953e-25
5.7937e-07 4.845e-25
5.8033e-07 4.7874e-25
5.813e-07 4.74e-25
5.8227e-07 4.6999e-25
5.8324e-07 4.6681e-25
5.8422e-07 4.6441e-25
5.8519e-07 4.6238e-25
5.8617e-07 4.6396e-25
5.8715e-07 4.6879e-25
5.8813e-07 4.8141e-25
5.8911e-07 4.9396e-25
5.9009e-07 4.9504e-25
5.9108e-07 4.9413e-25
5.9206e-07 5.0307e-25
5.9305e-07 4.9982e-25
5.9404e-07 5.1164e-25
5.9503e-07 5.26e-25
5.9603e-07 5.2654e-25
5.9702e-07 5.3659e-25
5.9802e-07 5.417e-25
5.9902e-07 5.4668e-25
6.0002e-07 5.4822e-25
6.0102e-07 5.4766e-25
6.0202e-07 5.4664e-25
6.0303e-07 5.4397e-25
6.0403e-07 5.391e-25
6.0504e-07 5.3378e-25
6.0605e-07 5.27e-25
6.0706e-07 5.1901e-25
6.0808e-07 5.103e-25
6.0909e-07 5.0106e-25
6.1011e-07 4.9185e-25
6.1113e-07 4.8445e-25
6.1215e-07 4.7774e-25
6.1317e-07 4.7062e-25
6.1419e-07 4.6347e-25
6.1522e-07 4.5649e-25
6.1624e-07 4.4977e-25
6.1727e-07 4.4332e-25
6.183e-07 4.3726e-25
6.1933e-07 4.316e-25
6.2037e-07 4.2636e-25
6.214e-07 4.2134e-25
6.2244e-07 4.1651e-25
6.2348e-07 4.1182e-25
6.2452e-07 4.0739e-25
6.2556e-07 4.038e-25
6.2661e-07 4.0202e-25
6.2765e-07 4.0539e-25
6.287e-07 4.0012e-25
6.2975e-07 3.9047e-25
6.308e-07 3.8037e-25
6.3185e-07 3.7781e-25
6.3291e-07 3.6968e-25
6.3397e-07 3.6187e-25
6.3502e-07 3.5531e-25
6.3608e-07 3.4831e-25
6.3715e-07 3.4173e-25
6.3821e-07 3.3436e-25
6.3927e-07 3.2809e-25
6.4034e-07 3.2102e-25
6.4141e-07 3.1435e-25
6.4248e-07 3.0808e-25
6.4355e-07 3.0361e-25
6.4463e-07 3.0064e-25
6.457e-07 2.9999e-25
6.4678e-07 3.0228e-25
6.4786e-07 3.0219e-25
6.4894e-07 2.9449e-25
6.5003e-07 2.8223e-25
6.5111e-07 2.7869e-25
6.522e-07 2.7843e-25
6.5329e-07 2.6629e-25
6.5438e-07 2.6353e-25
6.5547e-07 2.6161e-25
6.5656e-07 2.5513e-25
6.5766e-07 2.4827e-25
6.5876e-07 2.411e-25
6.5986e-07 2.3465e-25
6.6096e-07 2.281e-25
6.6206e-07 2.2224e-25
6.6317e-07 2.1774e-25
6.6427e-07 2.1294e-25
6.6538e-07 2.0748e-25
6.6649e-07 2.021e-25
6.676e-07 1.9649e-25
6.6872e-07 1.9131e-25
6.6983e-07 1.862e-25
6.7095e-07 1.8137e-25
6.7207e-07 1.7681e-25
6.7319e-07 1.7246e-25
6.7432e-07 1.6849e-25
6.7544e-07 1.6462e-25
6.7657e-07 1.6099e-25
6.777e-07 1.5746e-25
6.7883e-07 1.5426e-25
6.7996e-07 1.5146e-25
6.811e-07 1.4913e-25
6.8224e-07 1.476e-25
6.8338e-07 1.4565e-25
6.8452e-07 1.4408e-25
6.8566e-07 1.4137e-25
6.868e-07 1.5001e-25
6.8795e-07 1.5243e-25
6.891e-07 1.4466e-25
6.9025e-07 1.4014e-25
6.914e-07 1.3351e-25
6.9255e-07 1.3295e-25
6.9371e-07 1.3367e-25
6.9487e-07 1.2946e-25
6.9603e-07 1.2342e-25
6.9719e-07 1.1454e-25
6.9835e-07 1.1415e-25
6.9952e-07 1.1562e-25
7.0069e-07 1.1365e-25
7.0186e-07 1.1098e-25
7.0303e-07 1.0657e-25
7.042e-07 1.0326e-25
7.0538e-07 1.0317e-25
7.0655e-07 1.0094e-25
7.0773e-07 9.8777e-26
7.0891e-07 9.5918e-26
7.101e-07 9.5765e-26
7.1128e-07 9.3086e-26
7.1247e-07 9.2241e-26
7.1366e-07 9.2411e-26
7.1485e-07 9.4254e-26
7.1604e-07 9.727e-26
7.1724e-07 1.0769e-25
7.1844e-07 1.0627e-25
7.1964e-07 1.0485e-25
7.2084e-07 9.6596e-26
7.2204e-07 8.5866e-26
7.2324e-07 8.8164e-26
7.2445e-07 9.0256e-26
7.2566e-07 8.8485e-26
7.2687e-07 8.5428e-26
7.2809e-07 8.3697e-26
7.293e-07 8.1038e-26
7.3052e-07 7.9751e-26
7.3174e-07 7.6318e-26
7.3296e-07 7.0366e-26
7.3418e-07 6.6979e-26
7.3541e-07 6.7376e-26
7.3664e-07 6.7949e-26
7.3787e-07 6.5125e-26
7.391e-07 6.4229e-26
7.4033e-07 6.2098e-26
7.4157e-07 6.1098e-26
7.428e-07 6.0747e-26
7.4404e-07 6.0223e-26
7.4529e-07 6.049e-26
7.4653e-07 6.0485e-26
7.4778e-07 6.0108e-26
7.4902e-07 5.8615e-26
7.5027e-07 5.6632e-26
7.5153e-07 5.375e-26
7.5278e-07 5.0736e-26
7.5404e-07 4.8334e-26
7.553e-07 4.6382e-26
7.5656e-07 4.5146e-26
7.5782e-07 4.48e-26
7.5908e-07 4.7145e-26
7.6035e-07 5.7595e-26
7.6162e-07 5.4514e-26
7.6289e-07 5.4098e-26
7.6417e-07 5.3423e-26
7.6544e-07 5.0195e-26
7.6672e-07 4.7003e-26
7.68e-07 4.4109e-26
7.6928e-07 4.2845e-26
7.7056e-07 4.1409e-26
7.7185e-07 4.127e-26
7.7314e-07 4.191e-26
7.7443e-07 4.2905e-26
7.7572e-07 4.4184e-26
7.7702e-07 4.5457e-26
7.7831e-07 4.6453e-26
7.7961e-07 4.6649e-26
7.8091e-07 4.5708e-26
7.8222e-07 4.4306e-26
7.8352e-07 4.2656e-26
7.8483e-07 4.1316e-26
7.8614e-07 4.0481e-26
7.8745e-07 4.0375e-26
7.8877e-07 4.0065e-26
7.9008e-07 3.9654e-26
7.914e-07 3.758e-26
7.9272e-07 3.5932e-26
7.9405e-07 1.658e-26
7.9537e-07 -0
7.967e-07 -0
7.9803e-07 -0
7.9936e-07 -0
8.007e-07 -0
8.0203e-07 -0
8.0337e-07 -0
8.0471e-07 -0
8.0606e-07 -0
8.074e-07 -0
8.0875e-07 -0
8.101e-07 -0
8.1145e-07 -0
8.1281e-07 -0
8.1416e-07 -0
8.1552e-07 -0
8.1688e-07 -0
8.1825e-07 -0
8.1961e-07 -0
8.2098e-07 -0
8.2235e-07 -0
8.2372e-07 -0
8.251e-07 -0
8.2647e-07 -0
8.2785e-07 -0
8.2924e-07 -0
8.3062e-07 -0
8.3201e-07 -0
8.334e-07 -0
8.3479e-07 -0
8.3618e-07 -0
8.3758e-07 -0
8.3897e-07 -0
8.4037e-07 -0
8.4178e-07 -0
8.4318e-07 -0
8.4459e-07 -0
8.46e-07 -0
8.4741e-07 -0
8.4883e-07 -0
8.5024e-07 -0
8.5166e-07 -0
8.5308e-07 -0
8.5451e-07 -0
8.5593e-07 -0
8.5736e-07 -0
8.5879e-07 -0
8.6023e-07 -0
8.6166e-07 -0
8.631e-07 -0
8.6454e-07 -0
8.6598e-07 -0
8.6743e-07 -0
8.6888e-07 -0
8.7033e-07 -0
8.7178e-07 -0
8.7324e-07 -0
8.7469e-07 -0
8.7615e-07 -0
8.7762e-07 -0
8.7908e-07 -0
8.8055e-07 -0
8.8202e-07 -0
8.8349e-07 -0
8.8496e-07 -0
8.8644e-07 -0
8.8792e-07 -0
8.894e-07 -0
8.9089e-07 -0
8.9237e-07 -0
8.9386e-07 -0
8.9536e-07 -0
8.9685e-07 -0
8.9835e-07 -0
8.9985e-07 -0
9.0135e-07 -0
9.0285e-07 -0
9.0436e-07 -0
9.0587e-07 -0
9.0738e-07 -0
9.089e-07 -0
9.1041e-07 -0
9.1193e-07 -0
9.1346e-07 -0
9.1498e-07 -0
9.1651e-07 -0
9.1804e-07 -0
9.1957e-07 -0
9.211e-07 -0
9.2264e-07 -0
9.2418e-07 -0
9.2572e-07 -0
9.2727e-07 -0
9.2882e-07 -0
9.3037e-07 -0
9.3192e-07 -0
9.3348e-07 -0
9.3503e-07 -0
9.366e-07 -0
9.3816e-07 -0
9.3972e-07 -0
9.4129e-07 -0
9.4286e-07 -0
9.4444e-07 -0
9.4601e-07 -0
9.4759e-07 -0
9.4918e-07 -0
9.5076e-07 -0
9.5235e-07 -0
9.5394e-07 -0
9.5553e-07 -0
9.5712e-07 -0
9.5872e-07 -0
9.6032e-07 -0
9.6192e-07 -0
9.6353e-07 -0
9.6514e-07 -0
9.6675e-07 -0
9.6836e-07 -0
9.6998e-07 -0
9.716e-07 -0
9.7322e-07 -0
9.7484e-07 -0
9.7647e-07 -0
9.781e-07 -0
9.7973e-07 -0
9.8137e-07 -0
9.8301e-07 -0
9.8465e-07 -0
9.8629e-07 -0
9.8794e-07 -0
9.8959e-07 -0
9.9124e-07 -0
9.9289e-07 -0
9.9455e-07 -0
9.9621e-07 -0
9.9787e-07 -0
9.9954e-07 -0
1.0012e-06 -0
1.0029e-06 -0
1.0046e-06 -0
1.0062e-06 -0
1.0079e-06 -0
1.0096e-06 -0
1.0113e-06 -0
1.013e-06 -0
1.0147e-06 -0
1.0163e-06 -0
1.018e-06 -0
1.0197e-06 -0
1.0214e-06 -0
1.0232e-06 -0
1.0249e-06 -0
1.0266e-06 -0
1.0283e-06 -0
1.03e-06 -0