File: material/gas/smooth_input/o3_uv_vis_toa_T1_P0.txt
2.8e-07 3.8293e-22
2.8047e-07 3.6539e-22
2.8094e-07 3.5501e-22
2.814e-07 3.2892e-22
2.8187e-07 3.1677e-22
2.8234e-07 3.0554e-22
2.8282e-07 2.9432e-22
2.8329e-07 2.9014e-22
2.8376e-07 2.6589e-22
2.8423e-07 2.5342e-22
2.8471e-07 2.4383e-22
2.8518e-07 2.2716e-22
2.8566e-07 2.1922e-22
2.8614e-07 2.1032e-22
2.8661e-07 1.9916e-22
2.8709e-07 1.9121e-22
2.8757e-07 1.7641e-22
2.8805e-07 1.6464e-22
2.8853e-07 1.5723e-22
2.8901e-07 1.4901e-22
2.895e-07 1.4016e-22
2.8998e-07 1.3343e-22
2.9046e-07 1.275e-22
2.9095e-07 1.2016e-22
2.9143e-07 1.1081e-22
2.9192e-07 1.0338e-22
2.9241e-07 9.8772e-23
2.929e-07 9.3833e-23
2.9339e-07 8.6516e-23
2.9388e-07 8.0899e-23
2.9437e-07 7.7296e-23
2.9486e-07 7.2652e-23
2.9535e-07 6.6691e-23
2.9584e-07 6.2319e-23
2.9634e-07 5.8124e-23
2.9683e-07 5.5361e-23
2.9733e-07 5.1033e-23
2.9782e-07 4.7277e-23
2.9832e-07 4.4515e-23
2.9882e-07 4.2136e-23
2.9932e-07 3.8785e-23
2.9982e-07 3.5928e-23
3.0032e-07 3.4079e-23
3.0082e-07 3.1662e-23
3.0132e-07 2.8923e-23
3.0182e-07 2.7502e-23
3.0233e-07 2.5948e-23
3.0283e-07 2.3605e-23
3.0334e-07 2.1838e-23
3.0384e-07 2.1026e-23
3.0435e-07 1.9895e-23
3.0486e-07 1.7924e-23
3.0537e-07 1.6301e-23
3.0588e-07 1.5694e-23
3.0639e-07 1.5107e-23
3.069e-07 1.3704e-23
3.0741e-07 1.2161e-23
3.0792e-07 1.1649e-23
3.0844e-07 1.1206e-23
3.0895e-07 1.0654e-23
3.0947e-07 9.3798e-24
3.0998e-07 8.4871e-24
3.105e-07 8.2044e-24
3.1102e-07 7.7496e-24
3.1154e-07 7.4613e-24
3.1206e-07 6.5143e-24
3.1258e-07 5.8413e-24
3.131e-07 5.5881e-24
3.1362e-07 5.7538e-24
3.1415e-07 5.003e-24
3.1467e-07 4.1504e-24
3.152e-07 4.1233e-24
3.1572e-07 4.2279e-24
3.1625e-07 3.4799e-24
3.1678e-07 3.1012e-24
3.1731e-07 3.2533e-24
3.1784e-07 3.2196e-24
3.1837e-07 2.5069e-24
3.189e-07 2.0234e-24
3.1943e-07 2.2926e-24
3.1996e-07 2.537e-24
3.205e-07 2.0042e-24
3.2103e-07 1.3932e-24
3.2157e-07 1.3235e-24
3.2211e-07 1.8209e-24
3.2264e-07 1.8596e-24
3.2318e-07 1.2883e-24
3.2372e-07 7.67e-25
3.2426e-07 8.3786e-25
3.248e-07 1.2546e-24
3.2535e-07 1.2238e-24
3.2589e-07 8.7559e-25
3.2643e-07 5.1696e-25
3.2698e-07 5.184e-25
3.2752e-07 7.2468e-25
3.2807e-07 9.811e-25
3.2862e-07 5.8178e-25
3.2917e-07 2.9626e-25
3.2972e-07 2.5272e-25
3.3027e-07 4.2702e-25
3.3082e-07 5.5469e-25
3.3137e-07 5.5574e-25
3.3192e-07 2.8431e-25
3.3248e-07 1.606e-25
3.3303e-07 1.8697e-25
3.3359e-07 3.4457e-25
3.3414e-07 3.442e-25
3.347e-07 1.7971e-25
3.3526e-07 9.8505e-26
3.3582e-07 7.6097e-26
3.3638e-07 1.3068e-25
3.3694e-07 2.0573e-25
3.375e-07 2.6498e-25
3.3807e-07 1.3599e-25
3.3863e-07 6.5562e-26
3.392e-07 5.2092e-26
3.3976e-07 7.8158e-26
3.4033e-07 1.3358e-25
3.409e-07 7.7572e-26
3.4147e-07 3.6501e-26
3.4204e-07 2.4297e-26
3.4261e-07 2.0616e-26
3.4318e-07 3.5232e-26
3.4375e-07 7.0719e-26
3.4433e-07 9.7187e-26
3.449e-07 4.6429e-26
3.4548e-07 2.4813e-26
3.4605e-07 1.6257e-26
3.4663e-07 1.3602e-26
3.4721e-07 2.9301e-26
3.4779e-07 2.4027e-26
3.4837e-07 1.106e-26
3.4895e-07 6.6137e-27
3.4953e-07 6.4333e-27
3.5012e-07 6.136e-27
3.507e-07 7.4097e-27
3.5129e-07 2.3287e-26
3.5187e-07 2.5661e-26
3.5246e-07 1.2407e-26
3.5305e-07 6.3127e-27
3.5364e-07 3.1761e-27
3.5423e-07 1.82e-27
3.5482e-07 2.9957e-27
3.5541e-07 3.1569e-27
3.5601e-07 1.4043e-27
3.566e-07 1.253e-27
3.572e-07 1.3318e-27
3.5779e-07 8.4652e-28
3.5839e-07 4.4992e-28
3.5899e-07 1.5681e-27
3.5959e-07 4.8562e-27
3.6019e-07 3.8057e-27
3.6079e-07 1.9347e-27
3.6139e-07 9.1678e-28
3.6199e-07 5.1739e-28
3.626e-07 3.7978e-28
3.632e-07 3.0065e-28
3.6381e-07 3.1539e-28
3.6442e-07 2.619e-28
3.6502e-07 4.0792e-28
3.6563e-07 2.7751e-28
3.6624e-07 1.5517e-28
3.6686e-07 9.805e-29
3.6747e-07 6.1496e-29
3.6808e-07 7.9774e-29
3.687e-07 1.2407e-28
3.6931e-07 9.5418e-29
3.6993e-07 5.7605e-29
3.7054e-07 2.6971e-29
3.7116e-07 2.0329e-29
3.7178e-07 2.1666e-29
3.724e-07 2.4726e-29
3.7302e-07 2.9593e-29
3.7365e-07 7.5999e-29
3.7427e-07 1.0065e-28
3.749e-07 8.4082e-28
3.7552e-07 9.8773e-27
3.7615e-07 4.0011e-27
3.7678e-07 1.8961e-27
3.7741e-07 1.1625e-27
3.7804e-07 3.3606e-28
3.7867e-07 1.1714e-28
3.793e-07 7.3298e-29
3.7993e-07 8.3759e-29
3.8057e-07 9.0342e-29
3.812e-07 9.7672e-29
3.8184e-07 1.0142e-28
3.8247e-07 1.0439e-28
3.8311e-07 1.0404e-28
3.8375e-07 9.8961e-29
3.8439e-07 8.9109e-29
3.8503e-07 8.0974e-29
3.8568e-07 7.5025e-29
3.8632e-07 7.9302e-29
3.8697e-07 1.5847e-28
3.8761e-07 4.8516e-28
3.8826e-07 6.1875e-28
3.8891e-07 7.8432e-28
3.8956e-07 1.2692e-27
3.9021e-07 1.2947e-27
3.9086e-07 9.4963e-28
3.9151e-07 1.0131e-27
3.9216e-07 1.1331e-27
3.9282e-07 7.3748e-28
3.9347e-07 5.6051e-28
3.9413e-07 6.5194e-28
3.9479e-07 6.6267e-28
3.9545e-07 6.0756e-28
3.9611e-07 4.9654e-28
3.9677e-07 4.9725e-28
3.9743e-07 5.1414e-28
3.9809e-07 3.5681e-28
3.9876e-07 3.9035e-28
3.9942e-07 4.6786e-28
4.0009e-07 4.0357e-28
4.0076e-07 4.7971e-28
4.0143e-07 5.1454e-28
4.021e-07 5.9635e-28
4.0277e-07 6.1615e-28
4.0344e-07 5.7645e-28
4.0411e-07 5.7384e-28
4.0479e-07 5.6916e-28
4.0546e-07 5.9917e-28
4.0614e-07 6.9924e-28
4.0682e-07 8.7874e-28
4.075e-07 1.1449e-27
4.0818e-07 1.373e-27
4.0886e-07 1.5291e-27
4.0954e-07 1.6572e-27
4.1023e-07 1.6918e-27
4.1091e-07 1.6985e-27
4.116e-07 1.6725e-27
4.1228e-07 1.5703e-27
4.1297e-07 1.4127e-27
4.1366e-07 1.3895e-27
4.1435e-07 1.5608e-27
4.1504e-07 1.8232e-27
4.1574e-07 2.134e-27
4.1643e-07 2.3934e-27
4.1712e-07 2.6005e-27
4.1782e-07 2.7225e-27
4.1852e-07 2.6746e-27
4.1922e-07 2.5908e-27
4.1992e-07 2.6333e-27
4.2062e-07 2.7784e-27
4.2132e-07 3.1473e-27
4.2202e-07 3.6622e-27
4.2273e-07 4.2875e-27
4.2343e-07 4.9424e-27
4.2414e-07 5.5677e-27
4.2485e-07 6.1208e-27
4.2556e-07 6.4415e-27
4.2627e-07 6.3945e-27
4.2698e-07 6.2241e-27
4.2769e-07 5.8891e-27
4.2841e-07 5.5652e-27
4.2912e-07 5.3938e-27
4.2984e-07 5.438e-27
4.3055e-07 5.8179e-27
4.3127e-07 6.5058e-27
4.3199e-07 7.2383e-27
4.3271e-07 7.8012e-27
4.3344e-07 8.1142e-27
4.3416e-07 8.1183e-27
4.3488e-07 7.9794e-27
4.3561e-07 7.9649e-27
4.3634e-07 8.1243e-27
4.3707e-07 8.6334e-27
4.3779e-07 9.5125e-27
4.3853e-07 1.0837e-26
4.3926e-07 1.2381e-26
4.3999e-07 1.3847e-26
4.4073e-07 1.5303e-26
4.4146e-07 1.6735e-26
4.422e-07 1.7886e-26
4.4294e-07 1.8762e-26
4.4368e-07 1.819e-26
4.4442e-07 1.7614e-26
4.4516e-07 1.6634e-26
4.459e-07 1.5502e-26
4.4664e-07 1.4755e-26
4.4739e-07 1.4897e-26
4.4814e-07 1.5806e-26
4.4889e-07 1.714e-26
4.4963e-07 1.8543e-26
4.5038e-07 1.9717e-26
4.5114e-07 2.0192e-26
4.5189e-07 2.0102e-26
4.5264e-07 2.011e-26
4.534e-07 1.9857e-26
4.5416e-07 2.0073e-26
4.5491e-07 2.1959e-26
4.5567e-07 2.3123e-26
4.5643e-07 2.4381e-26
4.572e-07 2.713e-26
4.5796e-07 3.0331e-26
4.5872e-07 3.3459e-26
4.5949e-07 3.653e-26
4.6026e-07 3.94e-26
4.6102e-07 4.133e-26
4.6179e-07 4.194e-26
4.6256e-07 4.1384e-26
4.6334e-07 3.9794e-26
4.6411e-07 3.74e-26
4.6489e-07 3.5255e-26
4.6566e-07 3.3886e-26
4.6644e-07 3.4122e-26
4.6722e-07 3.5761e-26
4.68e-07 3.7923e-26
4.6878e-07 4.0509e-26
4.6956e-07 4.2777e-26
4.7034e-07 4.3628e-26
4.7113e-07 4.3771e-26
4.7192e-07 4.3449e-26
4.727e-07 4.3509e-26
4.7349e-07 4.4051e-26
4.7428e-07 4.535e-26
4.7507e-07 4.7739e-26
4.7587e-07 5.1277e-26
4.7666e-07 5.577e-26
4.7746e-07 6.0896e-26
4.7825e-07 6.6417e-26
4.7905e-07 7.2257e-26
4.7985e-07 7.8032e-26
4.8065e-07 8.3062e-26
4.8146e-07 8.6825e-26
4.8226e-07 8.8338e-26
4.8306e-07 8.7847e-26
4.8387e-07 8.5948e-26
4.8468e-07 8.368e-26
4.8549e-07 8.0774e-26
4.863e-07 7.7598e-26
4.8711e-07 7.6651e-26
4.8792e-07 7.7297e-26
4.8874e-07 7.9418e-26
4.8955e-07 8.2182e-26
4.9037e-07 8.4678e-26
4.9119e-07 8.6772e-26
4.9201e-07 8.8049e-26
4.9283e-07 8.8731e-26
4.9365e-07 8.918e-26
4.9448e-07 9.0008e-26
4.953e-07 9.1428e-26
4.9613e-07 9.4189e-26
4.9696e-07 9.8291e-26
4.9779e-07 1.0378e-25
4.9862e-07 1.1084e-25
4.9945e-07 1.1892e-25
5.0028e-07 1.2798e-25
5.0112e-07 1.3784e-25
5.0195e-07 1.4859e-25
5.0279e-07 1.5787e-25
5.0363e-07 1.7004e-25
5.0447e-07 1.7462e-25
5.0531e-07 1.7405e-25
5.0616e-07 1.7549e-25
5.07e-07 1.7472e-25
5.0785e-07 1.7175e-25
5.087e-07 1.6729e-25
5.0954e-07 1.6416e-25
5.104e-07 1.6094e-25
5.1125e-07 1.5972e-25
5.121e-07 1.6037e-25
5.1296e-07 1.6227e-25
5.1381e-07 1.6488e-25
5.1467e-07 1.6809e-25
5.1553e-07 1.7124e-25
5.1639e-07 1.74e-25
5.1725e-07 1.7659e-25
5.1811e-07 1.7928e-25
5.1898e-07 1.8214e-25
5.1984e-07 1.8539e-25
5.2071e-07 1.8932e-25
5.2158e-07 1.9432e-25
5.2245e-07 2.0054e-25
5.2332e-07 2.0841e-25
5.242e-07 2.1801e-25
5.2507e-07 2.2645e-25
5.2595e-07 2.3422e-25
5.2683e-07 2.4442e-25
5.2771e-07 2.5337e-25
5.2859e-07 2.6213e-25
5.2947e-07 2.7042e-25
5.3035e-07 2.7799e-25
5.3124e-07 2.8366e-25
5.3213e-07 2.8815e-25
5.3301e-07 2.9107e-25
5.339e-07 2.9232e-25
5.3479e-07 2.9256e-25
5.3569e-07 2.9209e-25
5.3658e-07 2.918e-25
5.3748e-07 2.9223e-25
5.3837e-07 2.945e-25
5.3927e-07 2.985e-25
5.4017e-07 3.0507e-25
5.4107e-07 3.1469e-25
5.4198e-07 3.1997e-25
5.4288e-07 3.2346e-25
5.4379e-07 3.3062e-25
5.447e-07 3.337e-25
5.4561e-07 3.3864e-25
5.4652e-07 3.4343e-25
5.4743e-07 3.4256e-25
5.4834e-07 3.441e-25
5.4926e-07 3.4626e-25
5.5017e-07 3.4854e-25
5.5109e-07 3.503e-25
5.5201e-07 3.5226e-25
5.5293e-07 3.5536e-25
5.5386e-07 3.589e-25
5.5478e-07 3.6329e-25
5.5571e-07 3.6848e-25
5.5663e-07 3.7479e-25
5.5756e-07 3.8253e-25
5.5849e-07 3.9124e-25
5.5943e-07 4.0077e-25
5.6036e-07 4.109e-25
5.613e-07 4.2065e-25
5.6223e-07 4.3012e-25
5.6317e-07 4.384e-25
5.6411e-07 4.4586e-25
5.6505e-07 4.5263e-25
5.66e-07 4.5895e-25
5.6694e-07 4.6639e-25
5.6789e-07 4.7683e-25
5.6883e-07 4.9071e-25
5.6978e-07 4.9614e-25
5.7074e-07 4.9422e-25
5.7169e-07 5.0097e-25
5.7264e-07 5.0697e-25
5.736e-07 5.0796e-25
5.7456e-07 5.1021e-25
5.7551e-07 5.0745e-25
5.7647e-07 5.0329e-25
5.7744e-07 5.0003e-25
5.784e-07 4.9272e-25
5.7937e-07 4.8757e-25
5.8033e-07 4.8153e-25
5.813e-07 4.7683e-25
5.8227e-07 4.7282e-25
5.8324e-07 4.6978e-25
5.8422e-07 4.6759e-25
5.8519e-07 4.6571e-25
5.8617e-07 4.6801e-25
5.8715e-07 4.7388e-25
5.8813e-07 4.8744e-25
5.8911e-07 5.0106e-25
5.9009e-07 5.0246e-25
5.9108e-07 5.0178e-25
5.9206e-07 5.1039e-25
5.9305e-07 5.0669e-25
5.9404e-07 5.1856e-25
5.9503e-07 5.3406e-25
5.9603e-07 5.3405e-25
5.9702e-07 5.4403e-25
5.9802e-07 5.4933e-25
5.9902e-07 5.541e-25
6.0002e-07 5.5491e-25
6.0102e-07 5.5345e-25
6.0202e-07 5.516e-25
6.0303e-07 5.483e-25
6.0403e-07 5.4266e-25
6.0504e-07 5.3703e-25
6.0605e-07 5.2996e-25
6.0706e-07 5.2167e-25
6.0808e-07 5.1284e-25
6.0909e-07 5.0349e-25
6.1011e-07 4.9418e-25
6.1113e-07 4.8784e-25
6.1215e-07 4.8371e-25
6.1317e-07 4.7845e-25
6.1419e-07 4.7278e-25
6.1522e-07 4.6691e-25
6.1624e-07 4.6098e-25
6.1727e-07 4.5507e-25
6.183e-07 4.4954e-25
6.1933e-07 4.4429e-25
6.2037e-07 4.3943e-25
6.214e-07 4.3461e-25
6.2244e-07 4.2999e-25
6.2348e-07 4.2549e-25
6.2452e-07 4.2138e-25
6.2556e-07 4.1836e-25
6.2661e-07 4.1771e-25
6.2765e-07 4.2131e-25
6.287e-07 4.1632e-25
6.2975e-07 4.0624e-25
6.308e-07 3.9577e-25
6.3185e-07 3.9397e-25
6.3291e-07 3.8592e-25
6.3397e-07 3.7778e-25
6.3502e-07 3.7108e-25
6.3608e-07 3.6401e-25
6.3715e-07 3.5743e-25
6.3821e-07 3.4981e-25
6.3927e-07 3.4368e-25
6.4034e-07 3.3656e-25
6.4141e-07 3.2977e-25
6.4248e-07 3.2342e-25
6.4355e-07 3.1928e-25
6.4463e-07 3.1679e-25
6.457e-07 3.1679e-25
6.4678e-07 3.2013e-25
6.4786e-07 3.1976e-25
6.4894e-07 3.1227e-25
6.5003e-07 2.9892e-25
6.5111e-07 2.9532e-25
6.522e-07 2.9518e-25
6.5329e-07 2.8304e-25
6.5438e-07 2.8045e-25
6.5547e-07 2.7856e-25
6.5656e-07 2.7215e-25
6.5766e-07 2.6427e-25
6.5876e-07 2.573e-25
6.5986e-07 2.5046e-25
6.6096e-07 2.4331e-25
6.6206e-07 2.3704e-25
6.6317e-07 2.3252e-25
6.6427e-07 2.2767e-25
6.6538e-07 2.2202e-25
6.6649e-07 2.1638e-25
6.676e-07 2.1051e-25
6.6872e-07 2.0522e-25
6.6983e-07 1.9993e-25
6.7095e-07 1.9495e-25
6.7207e-07 1.9043e-25
6.7319e-07 1.8611e-25
6.7432e-07 1.8213e-25
6.7544e-07 1.7834e-25
6.7657e-07 1.749e-25
6.777e-07 1.7132e-25
6.7883e-07 1.6838e-25
6.7996e-07 1.6566e-25
6.811e-07 1.6342e-25
6.8224e-07 1.6217e-25
6.8338e-07 1.6032e-25
6.8452e-07 1.5911e-25
6.8566e-07 1.5654e-25
6.868e-07 1.6352e-25
6.8795e-07 1.6749e-25
6.891e-07 1.6098e-25
6.9025e-07 1.5631e-25
6.914e-07 1.4982e-25
6.9255e-07 1.4948e-25
6.9371e-07 1.502e-25
6.9487e-07 1.4568e-25
6.9603e-07 1.3999e-25
6.9719e-07 1.3114e-25
6.9835e-07 1.3128e-25
6.9952e-07 1.3303e-25
7.0069e-07 1.3121e-25
7.0186e-07 1.2891e-25
7.0303e-07 1.2389e-25
7.042e-07 1.2063e-25
7.0538e-07 1.2126e-25
7.0655e-07 1.191e-25
7.0773e-07 1.17e-25
7.0891e-07 1.1399e-25
7.101e-07 1.1431e-25
7.1128e-07 1.1111e-25
7.1247e-07 1.1023e-25
7.1366e-07 1.1069e-25
7.1485e-07 1.1303e-25
7.1604e-07 1.1638e-25
7.1724e-07 1.2676e-25
7.1844e-07 1.2474e-25
7.1964e-07 1.241e-25
7.2084e-07 1.1552e-25
7.2204e-07 1.0516e-25
7.2324e-07 1.0712e-25
7.2445e-07 1.0962e-25
7.2566e-07 1.0784e-25
7.2687e-07 1.0527e-25
7.2809e-07 1.0313e-25
7.293e-07 1.0114e-25
7.3052e-07 1.0022e-25
7.3174e-07 9.6595e-26
7.3296e-07 8.9921e-26
7.3418e-07 8.637e-26
7.3541e-07 8.7353e-26
7.3664e-07 8.8303e-26
7.3787e-07 8.5232e-26
7.391e-07 8.4024e-26
7.4033e-07 8.1564e-26
7.4157e-07 8.0225e-26
7.428e-07 7.9646e-26
7.4404e-07 7.8653e-26
7.4529e-07 7.8572e-26
7.4653e-07 7.8488e-26
7.4778e-07 7.8133e-26
7.4902e-07 7.6469e-26
7.5027e-07 7.4482e-26
7.5153e-07 7.1569e-26
7.5278e-07 6.8754e-26
7.5404e-07 6.6537e-26
7.553e-07 6.4962e-26
7.5656e-07 6.4175e-26
7.5782e-07 6.4598e-26
7.5908e-07 6.7388e-26
7.6035e-07 7.614e-26
7.6162e-07 7.7081e-26
7.6289e-07 7.8676e-26
7.6417e-07 7.8146e-26
7.6544e-07 7.3662e-26
7.6672e-07 6.9312e-26
7.68e-07 6.572e-26
7.6928e-07 6.3705e-26
7.7056e-07 6.1587e-26
7.7185e-07 6.0719e-26
7.7314e-07 6.1138e-26
7.7443e-07 6.1835e-26
7.7572e-07 6.2906e-26
7.7702e-07 6.3928e-26
7.7831e-07 6.4762e-26
7.7961e-07 6.5175e-26
7.8091e-07 6.4213e-26
7.8222e-07 6.2942e-26
7.8352e-07 6.1609e-26
7.8483e-07 6.1059e-26
7.8614e-07 6.0704e-26
7.8745e-07 6.1861e-26
7.8877e-07 6.212e-26
7.9008e-07 6.2092e-26
7.914e-07 6.0516e-26
7.9272e-07 5.8889e-26
7.9405e-07 2.7699e-26
7.9537e-07 -0
7.967e-07 -0
7.9803e-07 -0
7.9936e-07 -0
8.007e-07 -0
8.0203e-07 -0
8.0337e-07 -0
8.0471e-07 -0
8.0606e-07 -0
8.074e-07 -0
8.0875e-07 -0
8.101e-07 -0
8.1145e-07 -0
8.1281e-07 -0
8.1416e-07 -0
8.1552e-07 -0
8.1688e-07 -0
8.1825e-07 -0
8.1961e-07 -0
8.2098e-07 -0
8.2235e-07 -0
8.2372e-07 -0
8.251e-07 -0
8.2647e-07 -0
8.2785e-07 -0
8.2924e-07 -0
8.3062e-07 -0
8.3201e-07 -0
8.334e-07 -0
8.3479e-07 -0
8.3618e-07 -0
8.3758e-07 -0
8.3897e-07 -0
8.4037e-07 -0
8.4178e-07 -0
8.4318e-07 -0
8.4459e-07 -0
8.46e-07 -0
8.4741e-07 -0
8.4883e-07 -0
8.5024e-07 -0
8.5166e-07 -0
8.5308e-07 -0
8.5451e-07 -0
8.5593e-07 -0
8.5736e-07 -0
8.5879e-07 -0
8.6023e-07 -0
8.6166e-07 -0
8.631e-07 -0
8.6454e-07 -0
8.6598e-07 -0
8.6743e-07 -0
8.6888e-07 -0
8.7033e-07 -0
8.7178e-07 -0
8.7324e-07 -0
8.7469e-07 -0
8.7615e-07 -0
8.7762e-07 -0
8.7908e-07 -0
8.8055e-07 -0
8.8202e-07 -0
8.8349e-07 -0
8.8496e-07 -0
8.8644e-07 -0
8.8792e-07 -0
8.894e-07 -0
8.9089e-07 -0
8.9237e-07 -0
8.9386e-07 -0
8.9536e-07 -0
8.9685e-07 -0
8.9835e-07 -0
8.9985e-07 -0
9.0135e-07 -0
9.0285e-07 -0
9.0436e-07 -0
9.0587e-07 -0
9.0738e-07 -0
9.089e-07 -0
9.1041e-07 -0
9.1193e-07 -0
9.1346e-07 -0
9.1498e-07 -0
9.1651e-07 -0
9.1804e-07 -0
9.1957e-07 -0
9.211e-07 -0
9.2264e-07 -0
9.2418e-07 -0
9.2572e-07 -0
9.2727e-07 -0
9.2882e-07 -0
9.3037e-07 -0
9.3192e-07 -0
9.3348e-07 -0
9.3503e-07 -0
9.366e-07 -0
9.3816e-07 -0
9.3972e-07 -0
9.4129e-07 -0
9.4286e-07 -0
9.4444e-07 -0
9.4601e-07 -0
9.4759e-07 -0
9.4918e-07 -0
9.5076e-07 -0
9.5235e-07 -0
9.5394e-07 -0
9.5553e-07 -0
9.5712e-07 -0
9.5872e-07 -0
9.6032e-07 -0
9.6192e-07 -0
9.6353e-07 -0
9.6514e-07 -0
9.6675e-07 -0
9.6836e-07 -0
9.6998e-07 -0
9.716e-07 -0
9.7322e-07 -0
9.7484e-07 -0
9.7647e-07 -0
9.781e-07 -0
9.7973e-07 -0
9.8137e-07 -0
9.8301e-07 -0
9.8465e-07 -0
9.8629e-07 -0
9.8794e-07 -0
9.8959e-07 -0
9.9124e-07 -0
9.9289e-07 -0
9.9455e-07 -0
9.9621e-07 -0
9.9787e-07 -0
9.9954e-07 -0
1.0012e-06 -0
1.0029e-06 -0
1.0046e-06 -0
1.0062e-06 -0
1.0079e-06 -0
1.0096e-06 -0
1.0113e-06 -0
1.013e-06 -0
1.0147e-06 -0
1.0163e-06 -0
1.018e-06 -0
1.0197e-06 -0
1.0214e-06 -0
1.0232e-06 -0
1.0249e-06 -0
1.0266e-06 -0
1.0283e-06 -0
1.03e-06 -0