File: material/gas/smooth_input/o3_uv_vis_T0_P0.txt
2.8e-07 3.9325e-22
2.8037e-07 3.7506e-22
2.8075e-07 3.6503e-22
2.8112e-07 3.5388e-22
2.815e-07 3.3447e-22
2.8187e-07 3.2197e-22
2.8225e-07 3.1501e-22
2.8263e-07 3.0419e-22
2.8301e-07 2.9734e-22
2.8338e-07 2.9327e-22
2.8376e-07 2.76e-22
2.8414e-07 2.613e-22
2.8452e-07 2.5301e-22
2.849e-07 2.4336e-22
2.8528e-07 2.3106e-22
2.8566e-07 2.2381e-22
2.8604e-07 2.1799e-22
2.8642e-07 2.0879e-22
2.8681e-07 2.0039e-22
2.8719e-07 1.9364e-22
2.8757e-07 1.8245e-22
2.8796e-07 1.7143e-22
2.8834e-07 1.6419e-22
2.8873e-07 1.5818e-22
2.8911e-07 1.5136e-22
2.895e-07 1.4425e-22
2.8989e-07 1.3811e-22
2.9027e-07 1.3302e-22
2.9066e-07 1.2803e-22
2.9105e-07 1.2183e-22
2.9144e-07 1.1447e-22
2.9183e-07 1.0769e-22
2.9222e-07 1.0293e-22
2.9261e-07 9.9677e-23
2.93e-07 9.5208e-23
2.9339e-07 8.9347e-23
2.9378e-07 8.4119e-23
2.9417e-07 8.0856e-23
2.9456e-07 7.7675e-23
2.9496e-07 7.3736e-23
2.9535e-07 6.9e-23
2.9575e-07 6.5137e-23
2.9614e-07 6.1539e-23
2.9654e-07 5.8652e-23
2.9693e-07 5.6311e-23
2.9733e-07 5.2845e-23
2.9773e-07 4.9588e-23
2.9812e-07 4.6942e-23
2.9852e-07 4.4914e-23
2.9892e-07 4.3009e-23
2.9932e-07 4.0184e-23
2.9972e-07 3.7602e-23
3.0012e-07 3.5999e-23
3.0052e-07 3.4376e-23
3.0092e-07 3.2275e-23
3.0132e-07 3.0032e-23
3.0173e-07 2.8674e-23
3.0213e-07 2.7653e-23
3.0253e-07 2.6054e-23
3.0294e-07 2.4134e-23
3.0334e-07 2.2686e-23
3.0375e-07 2.1886e-23
3.0415e-07 2.1213e-23
3.0456e-07 1.9906e-23
3.0496e-07 1.8273e-23
3.0537e-07 1.6979e-23
3.0578e-07 1.6399e-23
3.0619e-07 1.5974e-23
3.066e-07 1.5211e-23
3.0701e-07 1.3977e-23
3.0742e-07 1.2743e-23
3.0783e-07 1.2183e-23
3.0824e-07 1.1908e-23
3.0865e-07 1.141e-23
3.0906e-07 1.0907e-23
3.0947e-07 9.8186e-24
3.0989e-07 8.983e-24
3.103e-07 8.7772e-24
3.1071e-07 8.3537e-24
3.1113e-07 8.0538e-24
3.1155e-07 7.7853e-24
3.1196e-07 7.0193e-24
3.1238e-07 6.4129e-24
3.1279e-07 5.986e-24
3.1321e-07 5.8959e-24
3.1363e-07 6.0026e-24
3.1405e-07 5.4575e-24
3.1447e-07 4.7056e-24
3.1489e-07 4.3181e-24
3.1531e-07 4.4062e-24
3.1573e-07 4.419e-24
3.1615e-07 3.8386e-24
3.1657e-07 3.3934e-24
3.17e-07 3.3298e-24
3.1742e-07 3.4402e-24
3.1784e-07 3.3576e-24
3.1827e-07 2.8291e-24
3.1869e-07 2.3391e-24
3.1912e-07 2.1927e-24
3.1955e-07 2.5286e-24
3.1997e-07 2.6426e-24
3.204e-07 2.2746e-24
3.2083e-07 1.7221e-24
3.2126e-07 1.4309e-24
3.2168e-07 1.4971e-24
3.2211e-07 1.9196e-24
3.2254e-07 1.9533e-24
3.2297e-07 1.6911e-24
3.2341e-07 1.1298e-24
3.2384e-07 8.4979e-25
3.2427e-07 9.3137e-25
3.247e-07 1.2221e-24
3.2514e-07 1.387e-24
3.2557e-07 1.177e-24
3.2601e-07 8.6423e-25
3.2644e-07 5.9846e-25
3.2688e-07 5.4985e-25
3.2731e-07 7.0245e-25
3.2775e-07 8.8664e-25
3.2819e-07 9.8787e-25
3.2863e-07 6.4491e-25
3.2907e-07 3.9542e-25
3.295e-07 3.0415e-25
3.2994e-07 3.3127e-25
3.3039e-07 5.1581e-25
3.3083e-07 5.7735e-25
3.3127e-07 6.2252e-25
3.3171e-07 4.2113e-25
3.3215e-07 2.521e-25
3.326e-07 1.8729e-25
3.3304e-07 2.1858e-25
3.3349e-07 3.2582e-25
3.3393e-07 4.2753e-25
3.3438e-07 2.9222e-25
3.3482e-07 1.8554e-25
3.3527e-07 1.2046e-25
3.3572e-07 9.7063e-26
3.3617e-07 1.1901e-25
3.3662e-07 1.775e-25
3.3706e-07 2.4323e-25
3.3752e-07 2.764e-25
3.3797e-07 1.7409e-25
3.3842e-07 1.0008e-25
3.3887e-07 7.0482e-26
3.3932e-07 7.0449e-26
3.3977e-07 9.2497e-26
3.4023e-07 1.4376e-25
3.4068e-07 1.1352e-25
3.4114e-07 6.5322e-26
3.4159e-07 4.1153e-26
3.4205e-07 3.3449e-26
3.4251e-07 2.9714e-26
3.4296e-07 3.8145e-26
3.4342e-07 5.3515e-26
3.4388e-07 9.1141e-26
3.4434e-07 9.961e-26
3.448e-07 6.0839e-26
3.4526e-07 3.7586e-26
3.4572e-07 2.9431e-26
3.4618e-07 2.2604e-26
3.4664e-07 1.9925e-26
3.4711e-07 3.033e-26
3.4757e-07 3.3222e-26
3.4803e-07 2.0587e-26
3.485e-07 1.3133e-26
3.4896e-07 1.0238e-26
3.4943e-07 1.0751e-26
3.499e-07 1.0864e-26
3.5036e-07 1.0179e-26
3.5083e-07 1.1861e-26
3.513e-07 2.5395e-26
3.5177e-07 2.9376e-26
3.5224e-07 1.8818e-26
3.5271e-07 1.3017e-26
3.5318e-07 8.6669e-27
3.5365e-07 5.7446e-27
3.5412e-07 3.8851e-27
3.546e-07 3.9446e-27
3.5507e-07 5.2363e-27
3.5555e-07 4.2578e-27
3.5602e-07 2.8834e-27
3.565e-07 2.814e-27
3.5697e-07 3.5664e-27
3.5745e-07 2.9501e-27
3.5793e-07 2.2052e-27
3.584e-07 1.5691e-27
3.5888e-07 2.0147e-27
3.5936e-07 4.7145e-27
3.5984e-07 5.6586e-27
3.6032e-07 4.3662e-27
3.608e-07 2.9479e-27
3.6128e-07 1.9939e-27
3.6177e-07 1.3768e-27
3.6225e-07 1.1286e-27
3.6273e-07 9.8443e-28
3.6322e-07 9.3639e-28
3.637e-07 9.4094e-28
3.6419e-07 8.6094e-28
3.6468e-07 1.1935e-27
3.6516e-07 1.2664e-27
3.6565e-07 1.0643e-27
3.6614e-07 7.9238e-28
3.6663e-07 7.0816e-28
3.6712e-07 7.1016e-28
3.6761e-07 7.3388e-28
3.681e-07 6.4865e-28
3.6859e-07 5.8947e-28
3.6908e-07 5.8912e-28
3.6957e-07 6.2052e-28
3.7007e-07 7.8345e-28
3.7056e-07 1.2179e-27
3.7106e-07 1.252e-27
3.7155e-07 1.0419e-27
3.7205e-07 8.2765e-28
3.7255e-07 7.0748e-28
3.7304e-07 6.5267e-28
3.7354e-07 6.9115e-28
3.7404e-07 6.7011e-28
3.7454e-07 6.4631e-28
3.7504e-07 7.239e-28
3.7554e-07 1.1429e-27
3.7604e-07 1.1203e-27
3.7654e-07 9.6829e-28
3.7705e-07 8.5358e-28
3.7755e-07 7.5326e-28
3.7805e-07 6.9119e-28
3.7856e-07 6.1066e-28
3.7906e-07 5.4854e-28
3.7957e-07 5.3569e-28
3.8008e-07 5.2997e-28
3.8058e-07 5.3163e-28
3.8109e-07 5.3662e-28
3.816e-07 5.4335e-28
3.8211e-07 5.4219e-28
3.8262e-07 5.4346e-28
3.8313e-07 5.458e-28
3.8364e-07 5.5815e-28
3.8416e-07 5.6838e-28
3.8467e-07 5.6867e-28
3.8518e-07 5.6693e-28
3.857e-07 5.5701e-28
3.8621e-07 5.5037e-28
3.8673e-07 5.8586e-28
3.8724e-07 6.657e-28
3.8776e-07 8.1512e-28
3.8828e-07 8.1827e-28
3.888e-07 7.8708e-28
3.8932e-07 9.6874e-28
3.8984e-07 9.3605e-28
3.9036e-07 1.0168e-27
3.9088e-07 9.3379e-28
3.914e-07 9.7699e-28
3.9192e-07 1.1023e-27
3.9245e-07 1.0495e-27
3.9297e-07 9.93e-28
3.935e-07 9.8315e-28
3.9402e-07 1.0938e-27
3.9455e-07 1.2106e-27
3.9507e-07 1.1984e-27
3.956e-07 1.2025e-27
3.9613e-07 1.153e-27
3.9666e-07 1.1521e-27
3.9719e-07 1.1762e-27
3.9772e-07 1.161e-27
3.9825e-07 9.9338e-28
3.9878e-07 1.0998e-27
3.9931e-07 1.227e-27
3.9985e-07 1.1727e-27
4.0038e-07 1.2369e-27
4.0092e-07 1.3222e-27
4.0145e-07 1.3613e-27
4.0199e-07 1.4554e-27
4.0252e-07 1.5023e-27
4.0306e-07 1.4817e-27
4.036e-07 1.4377e-27
4.0414e-07 1.4453e-27
4.0468e-07 1.4402e-27
4.0522e-07 1.4508e-27
4.0576e-07 1.525e-27
4.063e-07 1.6423e-27
4.0684e-07 1.8297e-27
4.0739e-07 2.0832e-27
4.0793e-07 2.3114e-27
4.0848e-07 2.484e-27
4.0902e-07 2.6098e-27
4.0957e-07 2.7176e-27
4.1011e-07 2.7503e-27
4.1066e-07 2.7607e-27
4.1121e-07 2.7516e-27
4.1176e-07 2.7134e-27
4.1231e-07 2.6152e-27
4.1286e-07 2.4779e-27
4.1341e-07 2.4087e-27
4.1396e-07 2.4833e-27
4.1452e-07 2.6585e-27
4.1507e-07 2.8898e-27
4.1562e-07 3.1499e-27
4.1618e-07 3.3808e-27
4.1673e-07 3.5743e-27
4.1729e-07 3.73e-27
4.1785e-07 3.8221e-27
4.1841e-07 3.7945e-27
4.1897e-07 3.705e-27
4.1952e-07 3.6902e-27
4.2008e-07 3.7556e-27
4.2065e-07 3.8818e-27
4.2121e-07 4.1656e-27
4.2177e-07 4.5703e-27
4.2233e-07 5.013e-27
4.229e-07 5.5438e-27
4.2346e-07 6.0511e-27
4.2403e-07 6.5466e-27
4.2459e-07 7.018e-27
4.2516e-07 7.3692e-27
4.2573e-07 7.5221e-27
4.263e-07 7.4493e-27
4.2687e-07 7.334e-27
4.2744e-07 7.1128e-27
4.2801e-07 6.8291e-27
4.2858e-07 6.5984e-27
4.2915e-07 6.4733e-27
4.2972e-07 6.4865e-27
4.303e-07 6.7208e-27
4.3087e-07 7.1491e-27
4.3145e-07 7.7213e-27
4.3202e-07 8.288e-27
4.326e-07 8.7532e-27
4.3318e-07 9.0561e-27
4.3376e-07 9.203e-27
4.3434e-07 9.1167e-27
4.3492e-07 9.027e-27
4.355e-07 9.0093e-27
4.3608e-07 9.0588e-27
4.3666e-07 9.3259e-27
4.3724e-07 9.8005e-27
4.3783e-07 1.0525e-26
4.3841e-07 1.1527e-26
4.39e-07 1.2752e-26
4.3958e-07 1.388e-26
4.4017e-07 1.5072e-26
4.4076e-07 1.6216e-26
4.4135e-07 1.7352e-26
4.4194e-07 1.8282e-26
4.4253e-07 1.9189e-26
4.4312e-07 1.9409e-26
4.4371e-07 1.89e-26
4.443e-07 1.8372e-26
4.4489e-07 1.7685e-26
4.4549e-07 1.6811e-26
4.4608e-07 1.6056e-26
4.4668e-07 1.5623e-26
4.4728e-07 1.5701e-26
4.4787e-07 1.6238e-26
4.4847e-07 1.7118e-26
4.4907e-07 1.8221e-26
4.4967e-07 1.929e-26
4.5027e-07 2.0233e-26
4.5087e-07 2.0756e-26
4.5147e-07 2.0815e-26
4.5208e-07 2.0715e-26
4.5268e-07 2.0592e-26
4.5328e-07 2.0378e-26
4.5389e-07 2.0257e-26
4.545e-07 2.0945e-26
4.551e-07 2.2139e-26
4.5571e-07 2.3196e-26
4.5632e-07 2.4555e-26
4.5693e-07 2.6661e-26
4.5754e-07 2.9145e-26
4.5815e-07 3.1656e-26
4.5876e-07 3.4109e-26
4.5937e-07 3.6565e-26
4.5999e-07 3.897e-26
4.606e-07 4.0962e-26
4.6122e-07 4.2179e-26
4.6183e-07 4.2553e-26
4.6245e-07 4.2223e-26
4.6307e-07 4.1272e-26
4.6368e-07 3.96e-26
4.643e-07 3.7786e-26
4.6492e-07 3.6174e-26
4.6554e-07 3.5014e-26
4.6617e-07 3.4759e-26
4.6679e-07 3.5518e-26
4.6741e-07 3.6884e-26
4.6804e-07 3.8555e-26
4.6866e-07 4.0507e-26
4.6929e-07 4.2285e-26
4.6991e-07 4.3611e-26
4.7054e-07 4.3932e-26
4.7117e-07 4.4069e-26
4.718e-07 4.3824e-26
4.7243e-07 4.3787e-26
4.7306e-07 4.3952e-26
4.7369e-07 4.452e-26
4.7432e-07 4.5678e-26
4.7496e-07 4.7463e-26
4.7559e-07 4.9967e-26
4.7623e-07 5.3184e-26
4.7686e-07 5.6917e-26
4.775e-07 6.1006e-26
4.7814e-07 6.535e-26
4.7878e-07 6.9928e-26
4.7941e-07 7.4654e-26
4.8005e-07 7.9071e-26
4.807e-07 8.298e-26
4.8134e-07 8.613e-26
4.8198e-07 8.7954e-26
4.8262e-07 8.8432e-26
4.8327e-07 8.7733e-26
4.8391e-07 8.6207e-26
4.8456e-07 8.4439e-26
4.8521e-07 8.2379e-26
4.8585e-07 7.9791e-26
4.865e-07 7.7845e-26
4.8715e-07 7.7217e-26
4.878e-07 7.7487e-26
4.8846e-07 7.8812e-26
4.8911e-07 8.0912e-26
4.8976e-07 8.2912e-26
4.9041e-07 8.4927e-26
4.9107e-07 8.6619e-26
4.9173e-07 8.7827e-26
4.9238e-07 8.8597e-26
4.9304e-07 8.9073e-26
4.937e-07 8.9473e-26
4.9436e-07 9.0088e-26
4.9502e-07 9.101e-26
4.9568e-07 9.2635e-26
4.9634e-07 9.511e-26
4.97e-07 9.8388e-26
4.9767e-07 1.0256e-25
4.9833e-07 1.0775e-25
4.99e-07 1.1367e-25
4.9966e-07 1.2018e-25
5.0033e-07 1.2732e-25
5.01e-07 1.3484e-25
5.0167e-07 1.4355e-25
5.0234e-07 1.5064e-25
5.0301e-07 1.5858e-25
5.0368e-07 1.6817e-25
5.0435e-07 1.7235e-25
5.0503e-07 1.7178e-25
5.057e-07 1.7382e-25
5.0637e-07 1.7339e-25
5.0705e-07 1.7329e-25
5.0773e-07 1.7115e-25
5.0841e-07 1.6774e-25
5.0909e-07 1.646e-25
5.0976e-07 1.6243e-25
5.1045e-07 1.6019e-25
5.1113e-07 1.5918e-25
5.1181e-07 1.592e-25
5.1249e-07 1.6048e-25
5.1318e-07 1.6219e-25
5.1386e-07 1.6443e-25
5.1455e-07 1.67e-25
5.1524e-07 1.6961e-25
5.1592e-07 1.7199e-25
5.1661e-07 1.7421e-25
5.173e-07 1.7628e-25
5.1799e-07 1.7842e-25
5.1869e-07 1.8068e-25
5.1938e-07 1.8306e-25
5.2007e-07 1.8581e-25
5.2077e-07 1.8903e-25
5.2146e-07 1.9291e-25
5.2216e-07 1.9756e-25
5.2285e-07 2.0299e-25
5.2355e-07 2.0961e-25
5.2425e-07 2.1707e-25
5.2495e-07 2.2386e-25
5.2565e-07 2.3008e-25
5.2635e-07 2.3731e-25
5.2706e-07 2.4537e-25
5.2776e-07 2.5224e-25
5.2847e-07 2.5921e-25
5.2917e-07 2.6612e-25
5.2988e-07 2.7244e-25
5.3059e-07 2.7812e-25
5.3129e-07 2.8259e-25
5.32e-07 2.8638e-25
5.3271e-07 2.892e-25
5.3343e-07 2.9078e-25
5.3414e-07 2.9161e-25
5.3485e-07 2.9168e-25
5.3557e-07 2.9131e-25
5.3628e-07 2.9102e-25
5.37e-07 2.9092e-25
5.3771e-07 2.9161e-25
5.3843e-07 2.9333e-25
5.3915e-07 2.9622e-25
5.3987e-07 3.0065e-25
5.4059e-07 3.0678e-25
5.4131e-07 3.1351e-25
5.4204e-07 3.1722e-25
5.4276e-07 3.2004e-25
5.4349e-07 3.255e-25
5.4421e-07 3.2858e-25
5.4494e-07 3.3214e-25
5.4567e-07 3.3605e-25
5.4639e-07 3.4018e-25
5.4712e-07 3.4003e-25
5.4785e-07 3.4119e-25
5.4859e-07 3.4245e-25
5.4932e-07 3.4463e-25
5.5005e-07 3.465e-25
5.5079e-07 3.4788e-25
5.5152e-07 3.4989e-25
5.5226e-07 3.5191e-25
5.53e-07 3.5449e-25
5.5373e-07 3.5738e-25
5.5447e-07 3.6077e-25
5.5521e-07 3.6457e-25
5.5596e-07 3.69e-25
5.567e-07 3.7417e-25
5.5744e-07 3.8017e-25
5.5819e-07 3.8687e-25
5.5893e-07 3.9411e-25
5.5968e-07 4.0176e-25
5.6042e-07 4.0974e-25
5.6117e-07 4.176e-25
5.6192e-07 4.2514e-25
5.6267e-07 4.3236e-25
5.6342e-07 4.3862e-25
5.6418e-07 4.4469e-25
5.6493e-07 4.5014e-25
5.6568e-07 4.5508e-25
5.6644e-07 4.6055e-25
5.672e-07 4.6621e-25
5.6795e-07 4.7459e-25
5.6871e-07 4.8559e-25
5.6947e-07 4.9034e-25
5.7023e-07 4.9192e-25
5.7099e-07 4.9123e-25
5.7176e-07 4.9779e-25
5.7252e-07 5.0282e-25
5.7328e-07 5.0378e-25
5.7405e-07 5.056e-25
5.7482e-07 5.0576e-25
5.7558e-07 5.0339e-25
5.7635e-07 5.0021e-25
5.7712e-07 4.9759e-25
5.7789e-07 4.9313e-25
5.7866e-07 4.8817e-25
5.7944e-07 4.8446e-25
5.8021e-07 4.7926e-25
5.8098e-07 4.7569e-25
5.8176e-07 4.7233e-25
5.8254e-07 4.689e-25
5.8331e-07 4.6677e-25
5.8409e-07 4.6482e-25
5.8487e-07 4.6311e-25
5.8565e-07 4.6237e-25
5.8644e-07 4.6515e-25
5.8722e-07 4.696e-25
5.88e-07 4.7968e-25
5.8879e-07 4.9224e-25
5.8958e-07 4.9558e-25
5.9036e-07 4.9509e-25
5.9115e-07 4.9563e-25
5.9194e-07 5.0268e-25
5.9273e-07 5.0195e-25
5.9352e-07 5.0174e-25
5.9431e-07 5.199e-25
5.9511e-07 5.2714e-25
5.959e-07 5.2642e-25
5.967e-07 5.3293e-25
5.975e-07 5.4004e-25
5.9829e-07 5.4341e-25
5.9909e-07 5.4746e-25
5.9989e-07 5.4806e-25
6.0069e-07 5.4803e-25
6.015e-07 5.4773e-25
6.023e-07 5.4579e-25
6.031e-07 5.439e-25
6.0391e-07 5.396e-25
6.0471e-07 5.3571e-25
6.0552e-07 5.3088e-25
6.0633e-07 5.2488e-25
6.0714e-07 5.1838e-25
6.0795e-07 5.1143e-25
6.0876e-07 5.0409e-25
6.0958e-07 4.9657e-25
6.1039e-07 4.8958e-25
6.112e-07 4.8395e-25
6.1202e-07 4.7858e-25
6.1284e-07 4.7298e-25
6.1366e-07 4.6717e-25
6.1448e-07 4.6151e-25
6.153e-07 4.5597e-25
6.1612e-07 4.5057e-25
6.1694e-07 4.4536e-25
6.1776e-07 4.4036e-25
6.1859e-07 4.3565e-25
6.1942e-07 4.3119e-25
6.2024e-07 4.2698e-25
6.2107e-07 4.2294e-25
6.219e-07 4.1902e-25
6.2273e-07 4.1518e-25
6.2356e-07 4.1144e-25
6.2439e-07 4.0782e-25
6.2523e-07 4.0486e-25
6.2606e-07 4.0278e-25
6.269e-07 4.0205e-25
6.2774e-07 4.0685e-25
6.2857e-07 4.0198e-25
6.2941e-07 3.9338e-25
6.3025e-07 3.8545e-25
6.311e-07 3.7893e-25
6.3194e-07 3.7821e-25
6.3278e-07 3.7125e-25
6.3363e-07 3.6427e-25
6.3447e-07 3.5904e-25
6.3532e-07 3.5351e-25
6.3617e-07 3.48e-25
6.3702e-07 3.4236e-25
6.3787e-07 3.3664e-25
6.3872e-07 3.3171e-25
6.3957e-07 3.2621e-25
6.4043e-07 3.204e-25
6.4128e-07 3.1541e-25
6.4214e-07 3.0984e-25
6.43e-07 3.058e-25
6.4386e-07 3.0243e-25
6.4472e-07 3.0057e-25
6.4558e-07 2.9967e-25
6.4644e-07 3.0201e-25
6.473e-07 3.0332e-25
6.4817e-07 3.0086e-25
6.4903e-07 2.9412e-25
6.499e-07 2.8472e-25
6.5077e-07 2.7709e-25
6.5164e-07 2.829e-25
6.5251e-07 2.7367e-25
6.5338e-07 2.6677e-25
6.5425e-07 2.639e-25
6.5512e-07 2.6299e-25
6.56e-07 2.5851e-25
6.5687e-07 2.537e-25
6.5775e-07 2.4766e-25
6.5863e-07 2.4241e-25
6.5951e-07 2.3612e-25
6.6039e-07 2.3215e-25
6.6127e-07 2.2648e-25
6.6215e-07 2.2165e-25
6.6304e-07 2.1833e-25
6.6392e-07 2.1439e-25
6.6481e-07 2.105e-25
6.657e-07 2.0595e-25
6.6659e-07 2.0164e-25
6.6748e-07 1.9721e-25
6.6837e-07 1.9298e-25
6.6926e-07 1.8886e-25
6.7015e-07 1.8483e-25
6.7105e-07 1.8096e-25
6.7195e-07 1.7729e-25
6.7284e-07 1.7383e-25
6.7374e-07 1.7048e-25
6.7464e-07 1.6738e-25
6.7554e-07 1.6428e-25
6.7644e-07 1.6139e-25
6.7735e-07 1.5855e-25
6.7825e-07 1.559e-25
6.7916e-07 1.5332e-25
6.8006e-07 1.5129e-25
6.8097e-07 1.4943e-25
6.8188e-07 1.4798e-25
6.8279e-07 1.469e-25
6.837e-07 1.4523e-25
6.8462e-07 1.4404e-25
6.8553e-07 1.4164e-25
6.8645e-07 1.445e-25
6.8736e-07 1.5842e-25
6.8828e-07 1.477e-25
6.892e-07 1.4521e-25
6.9012e-07 1.4112e-25
6.9104e-07 1.3559e-25
6.9196e-07 1.3242e-25
6.9289e-07 1.3361e-25
6.9381e-07 1.3407e-25
6.9474e-07 1.3021e-25
6.9567e-07 1.2618e-25
6.966e-07 1.1864e-25
6.9753e-07 1.1346e-25
6.9846e-07 1.1454e-25
6.9939e-07 1.1645e-25
7.0032e-07 1.141e-25
7.0126e-07 1.1236e-25
7.022e-07 1.1062e-25
7.0313e-07 1.0636e-25
7.0407e-07 1.0352e-25
7.0501e-07 1.0325e-25
7.0595e-07 1.0273e-25
7.069e-07 1.0025e-25
7.0784e-07 9.8836e-26
7.0879e-07 9.6121e-26
7.0973e-07 9.5807e-26
7.1068e-07 9.466e-26
7.1163e-07 9.2279e-26
7.1258e-07 9.2007e-26
7.1353e-07 9.2618e-26
7.1448e-07 9.3682e-26
7.1544e-07 9.5406e-26
7.1639e-07 1.0014e-25
7.1735e-07 1.0908e-25
7.1831e-07 1.0738e-25
7.1927e-07 1.0515e-25
7.2023e-07 1.0253e-25
7.2119e-07 9.238e-26
7.2215e-07 8.5574e-26
7.2312e-07 8.8107e-26
7.2408e-07 9.0809e-26
7.2505e-07 9.0371e-26
7.2602e-07 8.8529e-26
7.2699e-07 8.5539e-26
7.2796e-07 8.4815e-26
7.2893e-07 8.0519e-26
7.299e-07 8.1446e-26
7.3088e-07 7.9505e-26
7.3185e-07 7.6459e-26
7.3283e-07 7.0545e-26
7.3381e-07 6.8038e-26
7.3479e-07 6.7478e-26
7.3577e-07 6.8005e-26
7.3675e-07 6.8067e-26
7.3774e-07 6.5193e-26
7.3872e-07 6.4649e-26
7.3971e-07 6.3642e-26
7.407e-07 6.1866e-26
7.4169e-07 6.099e-26
7.4268e-07 6.0851e-26
7.4367e-07 6.0221e-26
7.4466e-07 6.0392e-26
7.4565e-07 6.069e-26
7.4665e-07 6.0513e-26
7.4765e-07 6.021e-26
7.4865e-07 5.9172e-26
7.4965e-07 5.7742e-26
7.5065e-07 5.5936e-26
7.5165e-07 5.3493e-26
7.5265e-07 5.109e-26
7.5366e-07 4.9052e-26
7.5466e-07 4.7363e-26
7.5567e-07 4.605e-26
7.5668e-07 4.5192e-26
7.5769e-07 4.4931e-26
7.587e-07 4.5982e-26
7.5972e-07 5.1319e-26
7.6073e-07 5.9054e-26
7.6175e-07 5.4006e-26
7.6276e-07 5.425e-26
7.6378e-07 5.4312e-26
7.648e-07 5.2061e-26
7.6582e-07 4.946e-26
7.6685e-07 4.6826e-26
7.6787e-07 4.4483e-26
7.689e-07 4.3325e-26
7.6992e-07 4.226e-26
7.7095e-07 4.1218e-26
7.7198e-07 4.1479e-26
7.7301e-07 4.1996e-26
7.7404e-07 4.2668e-26
7.7508e-07 4.3656e-26
7.7611e-07 4.4612e-26
7.7715e-07 4.5587e-26
7.7819e-07 4.6399e-26
7.7922e-07 4.6739e-26
7.8026e-07 4.6274e-26
7.8131e-07 4.5339e-26
7.8235e-07 4.4211e-26
7.8339e-07 4.2852e-26
7.8444e-07 4.1718e-26
7.8549e-07 4.0628e-26
7.8654e-07 4.078e-26
7.8759e-07 4.0386e-26
7.8864e-07 4.0022e-26
7.8969e-07 4.0491e-26
7.9075e-07 3.8689e-26
7.918e-07 3.7215e-26
7.9286e-07 3.5651e-26
7.9392e-07 1.9809e-26
7.9498e-07 1.2682e-27
7.9604e-07 0
7.971e-07 0
7.9817e-07 0
7.9923e-07 0
8.003e-07 0
8.0137e-07 0
8.0244e-07 0
8.0351e-07 0
8.0458e-07 0
8.0566e-07 0
8.0673e-07 0
8.0781e-07 0
8.0889e-07 0
8.0997e-07 0
8.1105e-07 0
8.1213e-07 0
8.1322e-07 0
8.1431e-07 0
8.1539e-07 0
8.1648e-07 0
8.1757e-07 0
8.1866e-07 0
8.1976e-07 0
8.2085e-07 0
8.2195e-07 0
8.2304e-07 0
8.2414e-07 0
8.2524e-07 0
8.2635e-07 0
8.2745e-07 0
8.2855e-07 0
8.2966e-07 0
8.3077e-07 0
8.3188e-07 0
8.3299e-07 0
8.341e-07 0
8.3522e-07 0
8.3633e-07 0
8.3745e-07 0
8.3857e-07 0
8.3969e-07 0
8.4081e-07 0
8.4193e-07 0
8.4305e-07 0
8.4418e-07 0
8.4531e-07 0
8.4644e-07 0
8.4757e-07 0
8.487e-07 0
8.4983e-07 0
8.5097e-07 0
8.521e-07 0
8.5324e-07 0
8.5438e-07 0
8.5552e-07 0
8.5666e-07 0
8.5781e-07 0
8.5895e-07 0
8.601e-07 0
8.6125e-07 0
8.624e-07 0
8.6355e-07 0
8.647e-07 0
8.6586e-07 0
8.6701e-07 0
8.6817e-07 0
8.6933e-07 0
8.7049e-07 0
8.7165e-07 0
8.7282e-07 0
8.7398e-07 0
8.7515e-07 0
8.7632e-07 0
8.7749e-07 0
8.7866e-07 0
8.7983e-07 0
8.8101e-07 0
8.8218e-07 0
8.8336e-07 0
8.8454e-07 0
8.8572e-07 0
8.8691e-07 0
8.8809e-07 0
8.8928e-07 0
8.9046e-07 0
8.9165e-07 0
8.9284e-07 0
8.9404e-07 0
8.9523e-07 0
8.9642e-07 0
8.9762e-07 0
8.9882e-07 0
9.0002e-07 0
9.0122e-07 0
9.0243e-07 0
9.0363e-07 0
9.0484e-07 0
9.0605e-07 0
9.0726e-07 0
9.0847e-07 0
9.0968e-07 0
9.1089e-07 0
9.1211e-07 0
9.1333e-07 0
9.1455e-07 0
9.1577e-07 0
9.1699e-07 0
9.1822e-07 0
9.1944e-07 0
9.2067e-07 0
9.219e-07 0
9.2313e-07 0
9.2436e-07 0
9.256e-07 0
9.2683e-07 0
9.2807e-07 0
9.2931e-07 0
9.3055e-07 0
9.3179e-07 0
9.3304e-07 0
9.3429e-07 0
9.3553e-07 0
9.3678e-07 0
9.3803e-07 0
9.3929e-07 0
9.4054e-07 0
9.418e-07 0
9.4305e-07 0
9.4431e-07 0
9.4557e-07 0
9.4684e-07 0
9.481e-07 0
9.4937e-07 0
9.5e-07 0