File: material/gas/smooth_input/o3_uv_vis_toa_T0_P0.txt
2.8e-07 3.8683e-22
2.8047e-07 3.6906e-22
2.8094e-07 3.5825e-22
2.814e-07 3.3321e-22
2.8187e-07 3.2076e-22
2.8234e-07 3.1022e-22
2.8282e-07 2.9888e-22
2.8329e-07 2.943e-22
2.8376e-07 2.7113e-22
2.8423e-07 2.5812e-22
2.8471e-07 2.4801e-22
2.8518e-07 2.3153e-22
2.8566e-07 2.2304e-22
2.8614e-07 2.1402e-22
2.8661e-07 2.0288e-22
2.8709e-07 1.9467e-22
2.8757e-07 1.8021e-22
2.8805e-07 1.6822e-22
2.8853e-07 1.6046e-22
2.8901e-07 1.5207e-22
2.895e-07 1.4315e-22
2.8998e-07 1.3624e-22
2.9046e-07 1.3016e-22
2.9095e-07 1.2279e-22
2.9143e-07 1.1351e-22
2.9192e-07 1.0595e-22
2.9241e-07 1.011e-22
2.929e-07 9.6015e-23
2.9339e-07 8.8744e-23
2.9388e-07 8.2998e-23
2.9437e-07 7.9176e-23
2.9486e-07 7.4498e-23
2.9535e-07 6.8582e-23
2.9584e-07 6.4095e-23
2.9634e-07 5.9809e-23
2.9683e-07 5.6911e-23
2.9733e-07 5.2548e-23
2.9782e-07 4.8759e-23
2.9832e-07 4.5895e-23
2.9882e-07 4.3403e-23
2.9932e-07 4.0057e-23
2.9982e-07 3.7152e-23
3.0032e-07 3.5187e-23
3.0082e-07 3.2736e-23
3.0132e-07 2.9977e-23
3.0182e-07 2.8444e-23
3.0233e-07 2.6829e-23
3.0283e-07 2.449e-23
3.0334e-07 2.2673e-23
3.0384e-07 2.1756e-23
3.0435e-07 2.0595e-23
3.0486e-07 1.8646e-23
3.0537e-07 1.6991e-23
3.0588e-07 1.6299e-23
3.0639e-07 1.5654e-23
3.069e-07 1.4271e-23
3.0741e-07 1.2734e-23
3.0792e-07 1.2137e-23
3.0844e-07 1.1649e-23
3.0895e-07 1.1089e-23
3.0947e-07 9.8249e-24
3.0998e-07 8.9141e-24
3.105e-07 8.5665e-24
3.1102e-07 8.1019e-24
3.1154e-07 7.7863e-24
3.1206e-07 6.8539e-24
3.1258e-07 6.1722e-24
3.131e-07 5.8823e-24
3.1362e-07 5.9878e-24
3.1415e-07 5.2824e-24
3.1467e-07 4.4514e-24
3.152e-07 4.3457e-24
3.1572e-07 4.4199e-24
3.1625e-07 3.6964e-24
3.1678e-07 3.3093e-24
3.1731e-07 3.4159e-24
3.1784e-07 3.3656e-24
3.1837e-07 2.6866e-24
3.189e-07 2.2035e-24
3.1943e-07 2.4251e-24
3.1996e-07 2.6392e-24
3.205e-07 2.1386e-24
3.2103e-07 1.5427e-24
3.2157e-07 1.4465e-24
3.2211e-07 1.8945e-24
3.2264e-07 1.9342e-24
3.2318e-07 1.4007e-24
3.2372e-07 8.8466e-25
3.2426e-07 9.2566e-25
3.248e-07 1.3064e-24
3.2535e-07 1.2831e-24
3.2589e-07 9.5305e-25
3.2643e-07 6.0148e-25
3.2698e-07 5.8185e-25
3.2752e-07 7.6672e-25
3.2807e-07 1.0105e-24
3.2862e-07 6.4734e-25
3.2917e-07 3.5946e-25
3.2972e-07 3.0015e-25
3.3027e-07 4.575e-25
3.3082e-07 5.8266e-25
3.3137e-07 5.8716e-25
3.3192e-07 3.2651e-25
3.3248e-07 1.9526e-25
3.3303e-07 2.158e-25
3.3359e-07 3.6589e-25
3.3414e-07 3.7123e-25
3.347e-07 2.0924e-25
3.3526e-07 1.2177e-25
3.3582e-07 9.6725e-26
3.3638e-07 1.4948e-25
3.3694e-07 2.205e-25
3.375e-07 2.7516e-25
3.3807e-07 1.526e-25
3.3863e-07 8.1363e-26
3.392e-07 6.8365e-26
3.3976e-07 9.3777e-26
3.4033e-07 1.4352e-25
3.409e-07 8.8512e-26
3.4147e-07 4.5795e-26
3.4204e-07 3.3466e-26
3.4261e-07 3.0308e-26
3.4318e-07 4.5186e-26
3.4375e-07 7.6421e-26
3.4433e-07 1.0013e-25
3.449e-07 5.2911e-26
3.4548e-07 3.2785e-26
3.4605e-07 2.4505e-26
3.4663e-07 1.9899e-26
3.4721e-07 3.2751e-26
3.4779e-07 2.7253e-26
3.4837e-07 1.4561e-26
3.4895e-07 1.031e-26
3.4953e-07 1.1014e-26
3.5012e-07 1.0384e-26
3.507e-07 1.0699e-26
3.5129e-07 2.4607e-26
3.5187e-07 2.7273e-26
3.5246e-07 1.5653e-26
3.5305e-07 9.6834e-27
3.5364e-07 5.7794e-27
3.5423e-07 3.7092e-27
3.5482e-07 4.6413e-27
3.5541e-07 4.738e-27
3.5601e-07 2.9165e-27
3.566e-07 3.0168e-27
3.572e-07 3.3316e-27
3.5779e-07 2.4578e-27
3.5839e-07 1.5875e-27
3.5899e-07 2.6015e-27
3.5959e-07 5.6644e-27
3.6019e-07 4.799e-27
3.6079e-07 3.021e-27
3.6139e-07 1.8242e-27
3.6199e-07 1.2217e-27
3.626e-07 1.0257e-27
3.632e-07 9.36e-28
3.6381e-07 9.1342e-28
3.6442e-07 9.6992e-28
3.6502e-07 1.2979e-27
3.6563e-07 1.0643e-27
3.6624e-07 7.5958e-28
3.6686e-07 7.0137e-28
3.6747e-07 7.353e-28
3.6808e-07 6.5343e-28
3.687e-07 5.8672e-28
3.6931e-07 5.9915e-28
3.6993e-07 7.0488e-28
3.7054e-07 1.191e-27
3.7116e-07 1.2118e-27
3.7178e-07 9.3743e-28
3.724e-07 7.3625e-28
3.7302e-07 6.5237e-28
3.7365e-07 6.9329e-28
3.7427e-07 6.567e-28
3.749e-07 6.7234e-28
3.7552e-07 1.1389e-27
3.7615e-07 1.0984e-27
3.7678e-07 8.9213e-28
3.7741e-07 7.7759e-28
3.7804e-07 6.9361e-28
3.7867e-07 5.9893e-28
3.793e-07 5.3858e-28
3.7993e-07 5.31e-28
3.8057e-07 5.3123e-28
3.812e-07 5.3824e-28
3.8184e-07 5.4334e-28
3.8247e-07 5.4248e-28
3.8311e-07 5.4587e-28
3.8375e-07 5.6234e-28
3.8439e-07 5.6744e-28
3.8503e-07 5.6898e-28
3.8568e-07 5.5798e-28
3.8632e-07 5.4801e-28
3.8697e-07 6.2471e-28
3.8761e-07 7.6231e-28
3.8826e-07 8.2317e-28
3.8891e-07 8.3521e-28
3.8956e-07 9.541e-28
3.9021e-07 9.9949e-28
3.9086e-07 9.373e-28
3.9151e-07 1.0033e-27
3.9216e-07 1.1051e-27
3.9282e-07 1.0027e-27
3.9347e-07 9.886e-28
3.9413e-07 1.1328e-27
3.9479e-07 1.2184e-27
3.9545e-07 1.2075e-27
3.9611e-07 1.1497e-27
3.9677e-07 1.1589e-27
3.9743e-07 1.1851e-27
3.9809e-07 1.0302e-27
3.9876e-07 1.0923e-27
3.9942e-07 1.2222e-27
4.0009e-07 1.1796e-27
4.0076e-07 1.3095e-27
4.0143e-07 1.3593e-27
4.021e-07 1.4707e-27
4.0277e-07 1.4996e-27
4.0344e-07 1.4476e-27
4.0411e-07 1.4438e-27
4.0479e-07 1.4391e-27
4.0546e-07 1.4769e-27
4.0614e-07 1.604e-27
4.0682e-07 1.8199e-27
4.075e-07 2.1336e-27
4.0818e-07 2.3996e-27
4.0886e-07 2.5732e-27
4.0954e-07 2.7117e-27
4.1023e-07 2.7533e-27
4.1091e-07 2.7598e-27
4.116e-07 2.7284e-27
4.1228e-07 2.6216e-27
4.1297e-07 2.4557e-27
4.1366e-07 2.425e-27
4.1435e-07 2.6007e-27
4.1504e-07 2.8791e-27
4.1574e-07 3.2009e-27
4.1643e-07 3.4712e-27
4.1712e-07 3.6871e-27
4.1782e-07 3.8177e-27
4.1852e-07 3.7753e-27
4.1922e-07 3.6879e-27
4.1992e-07 3.7302e-27
4.2062e-07 3.8757e-27
4.2132e-07 4.241e-27
4.2202e-07 4.7592e-27
4.2273e-07 5.3771e-27
4.2343e-07 6.0288e-27
4.2414e-07 6.6471e-27
4.2485e-07 7.1906e-27
4.2556e-07 7.503e-27
4.2627e-07 7.4558e-27
4.2698e-07 7.3009e-27
4.2769e-07 6.9841e-27
4.2841e-07 6.6614e-27
4.2912e-07 6.4793e-27
4.2984e-07 6.514e-27
4.3055e-07 6.8919e-27
4.3127e-07 7.5609e-27
4.3199e-07 8.2707e-27
4.3271e-07 8.8234e-27
4.3344e-07 9.1435e-27
4.3416e-07 9.1574e-27
4.3488e-07 9.0289e-27
4.3561e-07 9.0087e-27
4.3634e-07 9.1509e-27
4.3707e-07 9.6299e-27
4.3779e-07 1.0471e-26
4.3853e-07 1.1762e-26
4.3926e-07 1.3271e-26
4.3999e-07 1.4708e-26
4.4073e-07 1.6155e-26
4.4146e-07 1.7564e-26
4.422e-07 1.8681e-26
4.4294e-07 1.947e-26
4.4368e-07 1.8909e-26
4.4442e-07 1.8264e-26
4.4516e-07 1.7294e-26
4.459e-07 1.6284e-26
4.4664e-07 1.5634e-26
4.4739e-07 1.5778e-26
4.4814e-07 1.6592e-26
4.4889e-07 1.7876e-26
4.4963e-07 1.9236e-26
4.5038e-07 2.0371e-26
4.5114e-07 2.0823e-26
4.5189e-07 2.075e-26
4.5264e-07 2.06e-26
4.534e-07 2.0323e-26
4.5416e-07 2.0459e-26
4.5491e-07 2.1762e-26
4.5567e-07 2.3145e-26
4.5643e-07 2.4915e-26
4.572e-07 2.7726e-26
4.5796e-07 3.0876e-26
4.5872e-07 3.3964e-26
4.5949e-07 3.7029e-26
4.6026e-07 3.9931e-26
4.6102e-07 4.1885e-26
4.6179e-07 4.2549e-26
4.6256e-07 4.2097e-26
4.6334e-07 4.0602e-26
4.6411e-07 3.8344e-26
4.6489e-07 3.6269e-26
4.6566e-07 3.4893e-26
4.6644e-07 3.4997e-26
4.6722e-07 3.6416e-26
4.68e-07 3.8441e-26
4.6878e-07 4.0865e-26
4.6956e-07 4.2982e-26
4.7034e-07 4.3868e-26
4.7113e-07 4.4051e-26
4.7192e-07 4.3821e-26
4.727e-07 4.3832e-26
4.7349e-07 4.431e-26
4.7428e-07 4.5588e-26
4.7507e-07 4.7879e-26
4.7587e-07 5.1284e-26
4.7666e-07 5.5706e-26
4.7746e-07 6.0747e-26
4.7825e-07 6.6169e-26
4.7905e-07 7.1975e-26
4.7985e-07 7.7737e-26
4.8065e-07 8.2734e-26
4.8146e-07 8.6564e-26
4.8226e-07 8.8314e-26
4.8306e-07 8.8051e-26
4.8387e-07 8.6336e-26
4.8468e-07 8.4132e-26
4.8549e-07 8.1355e-26
4.863e-07 7.8318e-26
4.8711e-07 7.7209e-26
4.8792e-07 7.766e-26
4.8874e-07 7.9659e-26
4.8955e-07 8.2304e-26
4.9037e-07 8.4775e-26
4.9119e-07 8.6853e-26
4.9201e-07 8.8231e-26
4.9283e-07 8.8932e-26
4.9365e-07 8.9443e-26
4.9448e-07 9.0237e-26
4.953e-07 9.1604e-26
4.9613e-07 9.4234e-26
4.9696e-07 9.8128e-26
4.9779e-07 1.0342e-25
4.9862e-07 1.1021e-25
4.9945e-07 1.1801e-25
5.0028e-07 1.2679e-25
5.0112e-07 1.3636e-25
5.0195e-07 1.467e-25
5.0279e-07 1.5586e-25
5.0363e-07 1.6736e-25
5.0447e-07 1.7212e-25
5.0531e-07 1.7222e-25
5.0616e-07 1.7379e-25
5.07e-07 1.7318e-25
5.0785e-07 1.7041e-25
5.087e-07 1.6624e-25
5.0954e-07 1.6322e-25
5.104e-07 1.602e-25
5.1125e-07 1.5907e-25
5.121e-07 1.5967e-25
5.1296e-07 1.6158e-25
5.1381e-07 1.6425e-25
5.1467e-07 1.6747e-25
5.1553e-07 1.7064e-25
5.1639e-07 1.7347e-25
5.1725e-07 1.7612e-25
5.1811e-07 1.7883e-25
5.1898e-07 1.8167e-25
5.1984e-07 1.8489e-25
5.2071e-07 1.8877e-25
5.2158e-07 1.9368e-25
5.2245e-07 1.9973e-25
5.2332e-07 2.0733e-25
5.242e-07 2.1648e-25
5.2507e-07 2.2491e-25
5.2595e-07 2.3285e-25
5.2683e-07 2.4279e-25
5.2771e-07 2.5176e-25
5.2859e-07 2.605e-25
5.2947e-07 2.688e-25
5.3035e-07 2.7638e-25
5.3124e-07 2.8226e-25
5.3213e-07 2.8691e-25
5.3301e-07 2.8999e-25
5.339e-07 2.9142e-25
5.3479e-07 2.9169e-25
5.3569e-07 2.9123e-25
5.3658e-07 2.9092e-25
5.3748e-07 2.9123e-25
5.3837e-07 2.9322e-25
5.3927e-07 2.9684e-25
5.4017e-07 3.0279e-25
5.4107e-07 3.1155e-25
5.4198e-07 3.1674e-25
5.4288e-07 3.2057e-25
5.4379e-07 3.2739e-25
5.447e-07 3.3075e-25
5.4561e-07 3.3569e-25
5.4652e-07 3.4028e-25
5.4743e-07 3.4017e-25
5.4834e-07 3.4203e-25
5.4926e-07 3.4438e-25
5.5017e-07 3.4676e-25
5.5109e-07 3.4882e-25
5.5201e-07 3.5106e-25
5.5293e-07 3.5426e-25
5.5386e-07 3.5791e-25
5.5478e-07 3.6231e-25
5.5571e-07 3.6744e-25
5.5663e-07 3.7369e-25
5.5756e-07 3.8123e-25
5.5849e-07 3.898e-25
5.5943e-07 3.9917e-25
5.6036e-07 4.0911e-25
5.613e-07 4.188e-25
5.6223e-07 4.2822e-25
5.6317e-07 4.3661e-25
5.6411e-07 4.4414e-25
5.6505e-07 4.5093e-25
5.66e-07 4.5722e-25
5.6694e-07 4.6425e-25
5.6789e-07 4.7376e-25
5.6883e-07 4.8624e-25
5.6978e-07 4.9166e-25
5.7074e-07 4.9089e-25
5.7169e-07 4.9724e-25
5.7264e-07 5.0287e-25
5.736e-07 5.0404e-25
5.7456e-07 5.0607e-25
5.7551e-07 5.0346e-25
5.7647e-07 4.9958e-25
5.7744e-07 4.9632e-25
5.784e-07 4.8957e-25
5.7937e-07 4.8452e-25
5.8033e-07 4.7876e-25
5.813e-07 4.7403e-25
5.8227e-07 4.7001e-25
5.8324e-07 4.6685e-25
5.8422e-07 4.6445e-25
5.8519e-07 4.6244e-25
5.8617e-07 4.6404e-25
5.8715e-07 4.6884e-25
5.8813e-07 4.8073e-25
5.8911e-07 4.928e-25
5.9009e-07 4.9414e-25
5.9108e-07 4.9368e-25
5.9206e-07 5.0194e-25
5.9305e-07 4.992e-25
5.9404e-07 5.1058e-25
5.9503e-07 5.2514e-25
5.9603e-07 5.2608e-25
5.9702e-07 5.3594e-25
5.9802e-07 5.4148e-25
5.9902e-07 5.4662e-25
6.0002e-07 5.4825e-25
6.0102e-07 5.4776e-25
6.0202e-07 5.4671e-25
6.0303e-07 5.44e-25
6.0403e-07 5.3911e-25
6.0504e-07 5.3379e-25
6.0605e-07 5.2702e-25
6.0706e-07 5.1902e-25
6.0808e-07 5.1031e-25
6.0909e-07 5.0107e-25
6.1011e-07 4.9185e-25
6.1113e-07 4.8445e-25
6.1215e-07 4.7775e-25
6.1317e-07 4.7063e-25
6.1419e-07 4.6346e-25
6.1522e-07 4.565e-25
6.1624e-07 4.4978e-25
6.1727e-07 4.4329e-25
6.183e-07 4.3725e-25
6.1933e-07 4.316e-25
6.2037e-07 4.2636e-25
6.214e-07 4.2135e-25
6.2244e-07 4.1652e-25
6.2348e-07 4.1183e-25
6.2452e-07 4.0741e-25
6.2556e-07 4.0383e-25
6.2661e-07 4.021e-25
6.2765e-07 4.046e-25
6.287e-07 3.9926e-25
6.2975e-07 3.8982e-25
6.308e-07 3.8005e-25
6.3185e-07 3.7747e-25
6.3291e-07 3.6969e-25
6.3397e-07 3.619e-25
6.3502e-07 3.5536e-25
6.3608e-07 3.4837e-25
6.3715e-07 3.4179e-25
6.3821e-07 3.3441e-25
6.3927e-07 3.2818e-25
6.4034e-07 3.2111e-25
6.4141e-07 3.1443e-25
6.4248e-07 3.0814e-25
6.4355e-07 3.0366e-25
6.4463e-07 3.0073e-25
6.457e-07 2.9994e-25
6.4678e-07 3.0207e-25
6.4786e-07 3.0125e-25
6.4894e-07 2.9395e-25
6.5003e-07 2.8183e-25
6.5111e-07 2.7821e-25
6.522e-07 2.7757e-25
6.5329e-07 2.6623e-25
6.5438e-07 2.6336e-25
6.5547e-07 2.612e-25
6.5656e-07 2.5503e-25
6.5766e-07 2.4784e-25
6.5876e-07 2.4111e-25
6.5986e-07 2.3467e-25
6.6096e-07 2.281e-25
6.6206e-07 2.2227e-25
6.6317e-07 2.1779e-25
6.6427e-07 2.13e-25
6.6538e-07 2.0753e-25
6.6649e-07 2.0214e-25
6.676e-07 1.965e-25
6.6872e-07 1.9132e-25
6.6983e-07 1.8621e-25
6.7095e-07 1.8138e-25
6.7207e-07 1.7681e-25
6.7319e-07 1.7246e-25
6.7432e-07 1.6849e-25
6.7544e-07 1.6462e-25
6.7657e-07 1.6099e-25
6.777e-07 1.5746e-25
6.7883e-07 1.5428e-25
6.7996e-07 1.5148e-25
6.811e-07 1.4915e-25
6.8224e-07 1.4764e-25
6.8338e-07 1.4568e-25
6.8452e-07 1.4414e-25
6.8566e-07 1.4144e-25
6.868e-07 1.4772e-25
6.8795e-07 1.5022e-25
6.891e-07 1.4366e-25
6.9025e-07 1.3917e-25
6.914e-07 1.3301e-25
6.9255e-07 1.3214e-25
6.9371e-07 1.3221e-25
6.9487e-07 1.2781e-25
6.9603e-07 1.2224e-25
6.9719e-07 1.1423e-25
6.9835e-07 1.1375e-25
6.9952e-07 1.1482e-25
7.0069e-07 1.1283e-25
7.0186e-07 1.1033e-25
7.0303e-07 1.0578e-25
7.042e-07 1.0281e-25
7.0538e-07 1.0283e-25
7.0655e-07 1.0076e-25
7.0773e-07 9.8696e-26
7.0891e-07 9.5839e-26
7.101e-07 9.5694e-26
7.1128e-07 9.308e-26
7.1247e-07 9.2189e-26
7.1366e-07 9.2383e-26
7.1485e-07 9.4091e-26
7.1604e-07 9.6659e-26
7.1724e-07 1.0499e-25
7.1844e-07 1.0287e-25
7.1964e-07 1.0164e-25
7.2084e-07 9.4084e-26
7.2204e-07 8.5062e-26
7.2324e-07 8.6351e-26
7.2445e-07 8.7801e-26
7.2566e-07 8.6079e-26
7.2687e-07 8.349e-26
7.2809e-07 8.1347e-26
7.293e-07 7.9117e-26
7.3052e-07 7.7931e-26
7.3174e-07 7.4772e-26
7.3296e-07 6.938e-26
7.3418e-07 6.647e-26
7.3541e-07 6.6902e-26
7.3664e-07 6.7444e-26
7.3787e-07 6.4911e-26
7.391e-07 6.397e-26
7.4033e-07 6.2034e-26
7.4157e-07 6.1076e-26
7.428e-07 6.0739e-26
7.4404e-07 6.0248e-26
7.4529e-07 6.0525e-26
7.4653e-07 6.0512e-26
7.4778e-07 6.013e-26
7.4902e-07 5.8638e-26
7.5027e-07 5.6658e-26
7.5153e-07 5.3785e-26
7.5278e-07 5.079e-26
7.5404e-07 4.8405e-26
7.553e-07 4.6478e-26
7.5656e-07 4.527e-26
7.5782e-07 4.4959e-26
7.5908e-07 4.6659e-26
7.6035e-07 5.4055e-26
7.6162e-07 5.2806e-26
7.6289e-07 5.3214e-26
7.6417e-07 5.2617e-26
7.6544e-07 4.9529e-26
7.6672e-07 4.6525e-26
7.68e-07 4.3912e-26
7.6928e-07 4.2737e-26
7.7056e-07 4.1434e-26
7.7185e-07 4.1289e-26
7.7314e-07 4.1965e-26
7.7443e-07 4.2944e-26
7.7572e-07 4.4204e-26
7.7702e-07 4.5468e-26
7.7831e-07 4.6461e-26
7.7961e-07 4.6662e-26
7.8091e-07 4.5723e-26
7.8222e-07 4.433e-26
7.8352e-07 4.2685e-26
7.8483e-07 4.1348e-26
7.8614e-07 4.0486e-26
7.8745e-07 4.0277e-26
7.8877e-07 3.989e-26
7.9008e-07 3.933e-26
7.914e-07 3.7376e-26
7.9272e-07 3.5738e-26
7.9405e-07 1.6523e-26
7.9537e-07 -0
7.967e-07 -0
7.9803e-07 -0
7.9936e-07 -0
8.007e-07 -0
8.0203e-07 -0
8.0337e-07 -0
8.0471e-07 -0
8.0606e-07 -0
8.074e-07 -0
8.0875e-07 -0
8.101e-07 -0
8.1145e-07 -0
8.1281e-07 -0
8.1416e-07 -0
8.1552e-07 -0
8.1688e-07 -0
8.1825e-07 -0
8.1961e-07 -0
8.2098e-07 -0
8.2235e-07 -0
8.2372e-07 -0
8.251e-07 -0
8.2647e-07 -0
8.2785e-07 -0
8.2924e-07 -0
8.3062e-07 -0
8.3201e-07 -0
8.334e-07 -0
8.3479e-07 -0
8.3618e-07 -0
8.3758e-07 -0
8.3897e-07 -0
8.4037e-07 -0
8.4178e-07 -0
8.4318e-07 -0
8.4459e-07 -0
8.46e-07 -0
8.4741e-07 -0
8.4883e-07 -0
8.5024e-07 -0
8.5166e-07 -0
8.5308e-07 -0
8.5451e-07 -0
8.5593e-07 -0
8.5736e-07 -0
8.5879e-07 -0
8.6023e-07 -0
8.6166e-07 -0
8.631e-07 -0
8.6454e-07 -0
8.6598e-07 -0
8.6743e-07 -0
8.6888e-07 -0
8.7033e-07 -0
8.7178e-07 -0
8.7324e-07 -0
8.7469e-07 -0
8.7615e-07 -0
8.7762e-07 -0
8.7908e-07 -0
8.8055e-07 -0
8.8202e-07 -0
8.8349e-07 -0
8.8496e-07 -0
8.8644e-07 -0
8.8792e-07 -0
8.894e-07 -0
8.9089e-07 -0
8.9237e-07 -0
8.9386e-07 -0
8.9536e-07 -0
8.9685e-07 -0
8.9835e-07 -0
8.9985e-07 -0
9.0135e-07 -0
9.0285e-07 -0
9.0436e-07 -0
9.0587e-07 -0
9.0738e-07 -0
9.089e-07 -0
9.1041e-07 -0
9.1193e-07 -0
9.1346e-07 -0
9.1498e-07 -0
9.1651e-07 -0
9.1804e-07 -0
9.1957e-07 -0
9.211e-07 -0
9.2264e-07 -0
9.2418e-07 -0
9.2572e-07 -0
9.2727e-07 -0
9.2882e-07 -0
9.3037e-07 -0
9.3192e-07 -0
9.3348e-07 -0
9.3503e-07 -0
9.366e-07 -0
9.3816e-07 -0
9.3972e-07 -0
9.4129e-07 -0
9.4286e-07 -0
9.4444e-07 -0
9.4601e-07 -0
9.4759e-07 -0
9.4918e-07 -0
9.5076e-07 -0
9.5235e-07 -0
9.5394e-07 -0
9.5553e-07 -0
9.5712e-07 -0
9.5872e-07 -0
9.6032e-07 -0
9.6192e-07 -0
9.6353e-07 -0
9.6514e-07 -0
9.6675e-07 -0
9.6836e-07 -0
9.6998e-07 -0
9.716e-07 -0
9.7322e-07 -0
9.7484e-07 -0
9.7647e-07 -0
9.781e-07 -0
9.7973e-07 -0
9.8137e-07 -0
9.8301e-07 -0
9.8465e-07 -0
9.8629e-07 -0
9.8794e-07 -0
9.8959e-07 -0
9.9124e-07 -0
9.9289e-07 -0
9.9455e-07 -0
9.9621e-07 -0
9.9787e-07 -0
9.9954e-07 -0
1.0012e-06 -0
1.0029e-06 -0
1.0046e-06 -0
1.0062e-06 -0
1.0079e-06 -0
1.0096e-06 -0
1.0113e-06 -0
1.013e-06 -0
1.0147e-06 -0
1.0163e-06 -0
1.018e-06 -0
1.0197e-06 -0
1.0214e-06 -0
1.0232e-06 -0
1.0249e-06 -0
1.0266e-06 -0
1.0283e-06 -0
1.03e-06 -0